# 04-22-2023 11:06:38, Main, Main, Main, Main, Main, Main
# Node, Navigation, Navigation, Navigation, Navigation, Navigation, Navigation
# Message, imu_gyro, imu_gyro, imu_gyro, imu_accel, imu_accel, imu_accel
# Signal, imu_gyro_x, imu_gyro_y, imu_gyro_z, imu_accel_x, imu_accel_y, imu_accel_z
0,0,0,0,0,0,0
0.015,0,0,0,0.01,8.51,5.02
0.03,0,0,0,-0.02,8.5,4.97
0.045,0,0,0,0,8.48,5.01
0.06,0,0,0,0,8.46,5.04
0.075,0,0,0,0,8.48,4.94
0.09,0,0,0,0,8.51,4.91
0.105,0,0,0.01,0,8.48,5.03
0.12,0,0,0,0.01,8.47,5.06
0.135,0,0,0,-0.03,8.49,4.96
0.15,0,0,0,0.01,8.45,5.04
0.165,0,0,0,-0.03,8.5,4.97
0.18,0,0,0,0,8.51,4.97
0.195,0,0,0,-0.02,8.5,4.99
0.21,0,0,0,0.01,8.49,5.02
0.225,0,0,0.01,-0.01,8.53,4.95
0.24,0,0,0,0.02,8.48,5.05
0.255,0,0,0,0.01,8.45,5.06
0.27,0,0,0,0,8.46,5.05
0.285,0,0,0,0.01,8.46,5.04
0.3,0,0,0,-0.04,8.49,4.97
0.315,0,0,0,0,8.5,5
0.33,0,0,0,-0.04,8.52,4.99
0.345,0,0,0,-0.03,8.49,5
0.36,0,0,0,-0.04,8.52,4.95
0.375,0,0,0,0,8.45,5.05
0.39,0,0,0,-0.01,8.5,4.93
0.405,0,0,0,0.03,8.47,5.04
0.42,0,0,0,0.05,8.47,5.04
0.435,0,0,0,0,8.49,4.94
0.45,0,0,0,0.01,8.45,4.98
0.465,0,0,0,0.04,8.46,4.99
0.48,0,0,0,0.04,8.52,5.01
0.495,0,0,0,-0.02,8.58,4.96
0.51,0,0,0,0,8.53,5.08
0.525,0,0,0,-0.07,8.53,4.92
0.54,0,0,0,-0.07,8.47,4.91
0.555,0,0,0,-0.01,8.4,4.99
0.57,0,0,0,-0.01,8.43,4.97
0.585,0,0,0,-0.02,8.49,5.03
0.6,0,0,0,-0.02,8.5,5.04
0.615,0,0,0,0.01,8.54,5.1
0.63,0,0,0,0.02,8.56,5.01
0.645,0,0,0,0.01,8.49,5.07
0.66,0,0,0,0.02,8.43,5.01
0.675,0,0,0,-0.01,8.45,4.9
0.69,0,0,0,0,8.48,4.88
0.705,0,0,0,-0.02,8.53,4.96
0.72,0,0,0,0,8.52,5.03
0.735,0,0,0,-0.02,8.54,5.02
0.75,0,0,0,-0.04,8.49,5.02
0.765,0,0,0,-0.02,8.51,5.02
0.78,0,0,0,-0.04,8.5,4.94
0.795,0,0,0,-0.03,8.49,4.93
0.81,0,0,0,0.01,8.45,5.02
0.825,0,0,0,0.02,8.48,5.06
0.84,0,0,0,-0.03,8.5,4.93
0.855,0,0,0,0.03,8.48,5.05
0.87,0,0,0,0,8.51,5.02
0.885,0,0,0,-0.03,8.49,4.96
0.9,0,0,0,-0.01,8.5,5
0.915,0,0,0,0,8.46,4.99
0.93,0,0,0,0,8.52,4.93
0.945,0,0,0,-0.04,8.49,4.92
0.96,0,0,0,0,8.47,5.07
0.975,0,0,0,-0.04,8.51,4.94
0.99,0,0,0,-0.06,8.5,4.96
1.005,0,0,0,-0.01,8.46,4.99
1.02,0,0,0,0,8.5,5.02
1.035,0,0,0,0.01,8.48,4.98
1.05,0,0,0,0,8.49,4.99
1.065,0,0,0,0,8.5,4.96
1.08,0,0,0,-0.02,8.51,4.94
1.095,0,0,0,0.01,8.48,5.04
1.11,0,0,0,-0.03,8.5,4.93
1.125,0,0,0,0.02,8.49,5.03
1.14,0,0,0,-0.03,8.48,4.96
1.155,0,0,0,-0.04,8.5,5
1.17,0,0,0,0,8.5,4.98
1.185,0,0,0,0,8.46,5
1.2,0,0,0,0,8.47,5.02
1.215,0,0,0,0,8.47,5.04
1.23,0,0,0,-0.03,8.49,4.94
1.245,0,0,0,-0.05,8.49,4.92
1.26,0,0,0,0.02,8.47,5.06
1.275,0,0,0,0.02,8.49,5.05
1.29,0,0,0,-0.03,8.51,4.98
1.305,0,0,0,0.03,8.5,5.01
1.32,0,0,0,-0.01,8.49,5
1.335,0,0,0,0,8.49,4.97
1.35,0,0,0,0.01,8.44,5.05
1.365,0,0,0,0,8.44,5.03
1.38,0,0,0,-0.03,8.5,4.94
1.395,0,0,0,0,8.45,5.06
1.41,0,0,0,-0.03,8.51,4.95
1.425,0,0,0,0,8.48,5.03
1.44,0,0,0,-0.03,8.48,4.99
1.455,0,0,0,-0.02,8.47,4.98
1.47,0,0,0,0.01,8.5,4.97
1.485,0,0,0.01,0,8.5,4.94
1.5,0,0,0.01,-0.01,8.47,5.03
1.515,0,0,0,-0.02,8.5,4.92
1.53,0,0,0,0,8.48,5.05
1.545,0,0,0,-0.02,8.49,4.94
1.56,0,0,0,0.04,8.49,5.05
1.575,0,0,0,0,8.51,5.03
1.59,0,0,0,-0.01,8.49,4.95
1.605,0,0,0,-0.02,8.46,5.01
1.62,0,0,0,-0.01,8.47,5.01
1.635,0,0,0,-0.02,8.52,4.95
1.65,0,0,0,-0.04,8.49,4.94
1.665,0,0,0,0.02,8.47,5.05
1.68,0,0,0,-0.01,8.52,4.92
1.695,0,0,0,-0.04,8.49,4.96
1.71,0,0,0,0,8.49,5.01
1.725,0,0,0,-0.03,8.49,4.97
1.74,0,0,0,-0.01,8.5,5
1.755,0,0,0,-0.02,8.49,5.02
1.77,0,0,0,0,8.46,5.02
1.785,0,0,0,-0.01,8.49,4.93
1.8,0,0,0,0.02,8.48,5.07
1.815,0,0,0,0.03,8.47,5.05
1.83,0,0,0,0.04,8.5,5.02
1.845,0,0,0,-0.02,8.5,4.98
1.86,0,0,0,-0.02,8.47,4.98
1.875,0,0,0,-0.01,8.5,4.99
1.89,0,0,0,-0.02,8.47,5.01
1.905,0,0,0,-0.01,8.46,5.03
1.92,0,0,0,-0.01,8.51,4.96
1.935,0,0,0,0.01,8.48,5.06
1.95,0,0,0,-0.02,8.49,4.92
1.965,0,0,0,0.01,8.45,5.05
1.98,0,0,0,0.01,8.48,5.02
1.995,0,0,0,-0.03,8.49,4.96
2.01,0,0,0,0,8.49,5.05
2.025,0,0,0,0,8.52,4.97
2.04,0,0,0,-0.01,8.51,4.96
2.055,0,0,0,0,8.48,5.03
2.07,0,0,0,0.02,8.46,5.04
2.085,0,0,0,-0.03,8.48,4.94
2.1,0,0,0,-0.04,8.49,4.94
2.115,0,0,0,0.02,8.47,5.04
2.13,0,0,0,-0.02,8.52,4.95
2.145,0,0,0,0,8.48,5.01
2.16,0,0,0,-0.01,8.48,4.98
2.175,0,0,0,0,8.52,4.96
2.19,0,0,0,-0.01,8.5,4.94
2.205,0,0,0,0,8.46,5.04
2.22,0,0,0,-0.02,8.51,4.93
2.235,0,0,0,-0.04,8.49,4.96
2.25,0,0,0,-0.03,8.49,4.95
2.265,0,0,0,-0.01,8.46,4.99
2.28,0,0,0,0.01,8.49,4.99
2.295,0,0,0,-0.04,8.47,4.99
2.31,0,0,0,0,8.47,4.99
2.325,0,0,0,0.01,8.48,4.93
2.34,0,0,0,0,8.46,5.04
2.355,0,0,0,-0.02,8.52,4.97
2.37,0,0,0,0.01,8.49,5.05
2.385,0,0,0,-0.05,8.51,4.95
2.4,0,0,0,-0.04,8.47,4.96
2.415,0,0,0,0,8.46,5.01
2.43,0,0,0,-0.01,8.47,4.96
2.445,0,0,0,-0.01,8.44,4.97
2.46,0,0,0,0.01,8.45,5.02
2.475,0,0,0,0,8.49,5.04
2.49,0,0,0,-0.02,8.54,4.97
2.505,0,0,0,0.01,8.49,5.08
2.52,0,0,0,0.01,8.49,5.06
2.535,0,0,0,-0.04,8.48,4.96
2.55,0,0,0,0,8.49,5.04
2.565,0,0,0,-0.02,8.5,4.96
2.58,0,0,0,0.01,8.5,5
2.595,0,0,0,-0.03,8.51,4.99
2.61,0,0,0,0,8.47,5.04
2.625,0,0,0,-0.02,8.52,4.96
2.64,0,0,0,0,8.49,4.93
2.655,0,0,0,0.04,8.44,5.05
2.67,0,0,0,0.02,8.44,5.06
2.685,0,0,0,0,8.5,5.06
2.7,0,0,0,-0.03,8.5,4.99
2.715,0,0,0,0,8.53,5.03
2.73,0,0,0,-0.01,8.54,4.97
2.745,0,0,0,-0.02,8.49,5.02
2.76,0,0,0,-0.03,8.54,4.92
2.775,0,0,0,-0.02,8.49,5.01
2.79,0,0,0,-0.03,8.52,4.89
2.805,0,0,0,-0.02,8.48,4.94
2.82,0,0,0,0.02,8.47,5.05
2.835,0,0,0,-0.01,8.47,5
2.85,0,0,0,-0.01,8.48,5.06
2.865,0,0,0,0.03,8.52,5.08
2.88,0,0,0,0.01,8.51,5.04
2.895,0,0,0,-0.02,8.51,4.95
2.91,0,0,0,0,8.46,5.02
2.925,0,0,0,-0.02,8.48,4.92
2.94,0,0,0,-0.06,8.49,4.89
2.955,0,0,0,0,8.48,5.02
2.97,0,0,0,-0.03,8.49,5
2.985,0,0,0,0,8.53,4.97
3,0,0,0,-0.02,8.47,5
3.015,0,0,0,0,8.45,5.04
3.03,0,0,0,0,8.5,4.95
3.045,0,0,0,0.01,8.47,5.03
3.06,0,0,0,0.03,8.46,5.05
3.075,0,0,0,0.01,8.51,4.93
3.09,0,0,0,-0.02,8.48,4.95
3.105,0,0,0,-0.04,8.49,4.97
3.12,0,0,0,0.01,8.51,5.03
3.135,0,0,0,-0.02,8.5,5
3.15,0,0,0,-0.03,8.48,5.01
3.165,0,0,0,-0.02,8.51,4.97
3.18,0,0,0,-0.04,8.51,4.92
3.195,0,0,0,-0.03,8.5,4.94
3.21,0,0,0,0.01,8.47,5.07
3.225,0,0,0,0.03,8.48,5.06
3.24,0,0,0,-0.04,8.5,4.93
3.255,0,0,0,-0.01,8.52,5.04
3.27,0,0,0,0.03,8.49,5
3.285,0,0,0,0,8.5,5.01
3.3,0,0,0.01,0,8.49,4.99
3.315,0,0,0,0,8.49,5.06
3.33,0,0,0,-0.01,8.52,4.94
3.345,0,0,0,-0.04,8.48,4.92
3.36,0,0,0,0.02,8.46,5.03
3.375,0,0,0,-0.03,8.46,4.93
3.39,0,0,0,-0.05,8.47,4.98
3.405,0,0,0,-0.03,8.49,4.98
3.42,0,0,0,-0.01,8.49,5
3.435,0,0,0,-0.02,8.52,4.96
3.45,0,0,0,0.01,8.49,5.03
3.465,0,0,0,0.02,8.46,5.04
3.48,0,0,0,0.02,8.49,4.92
3.495,0,0,0,0.05,8.46,5.04
3.51,0,0,0,-0.02,8.47,4.95
3.525,0,0,0,0,8.47,5.04
3.54,0,0,0,-0.02,8.5,4.97
3.555,0,0,0,-0.05,8.46,4.96
3.57,0,0,0,-0.01,8.52,4.98
3.585,0,0,0,-0.04,8.49,5.03
3.6,0,0,0,0,8.53,4.97
3.615,0,0,0,-0.01,8.47,5.06
3.63,0,0,0,0.02,8.44,5.06
3.645,0,0,0,-0.02,8.5,4.94
3.66,0,0,0,0.03,8.45,5.06
3.675,0,0,0,0.02,8.48,5.02
3.69,0,0,0,-0.01,8.47,4.99
3.705,0,0,0,0.02,8.52,4.99
3.72,0,0,0,-0.01,8.47,5.03
3.735,0,0,0,-0.03,8.51,4.96
3.75,0,0,0,0,8.46,5.05
3.765,0,0,0,0.01,8.46,5.05
3.78,0,0,0,-0.04,8.49,4.95
3.795,0,0,0,-0.05,8.5,4.93
3.81,0,0,0,-0.03,8.5,4.99
3.825,0,0,0,0,8.51,5.01
3.84,0,0,0,0,8.52,4.99
3.855,0,0,0,0.01,8.47,4.99
3.87,0,0,0,0.01,8.52,4.95
3.885,0,0,0,-0.01,8.51,4.95
3.9,0,0,0,0.02,8.47,5.05
3.915,0,0,0,-0.04,8.5,4.91
3.93,0,0,0,0.02,8.48,5.03
3.945,0,0,0,-0.02,8.5,4.95
3.96,0,0,0,-0.02,8.48,4.99
3.975,0,0,0.01,0.04,8.51,5
3.99,0,0,0,-0.01,8.47,5
4.005,0,0,0,0,8.48,5.01
4.02,0,0,0,0.01,8.47,5.03
4.035,0,0,0,-0.01,8.5,4.93
4.05,0,0,0,-0.05,8.48,4.92
4.065,0,0,0,0,8.47,5.09
4.08,0,0,0,-0.04,8.51,4.97
4.095,0,0,0,-0.01,8.46,4.97
4.11,0,0,0,0,8.46,5
4.125,0,0,0,-0.01,8.46,5
4.14,0,0,0,0.01,8.5,4.97
4.155,0,0,0,0.01,8.48,5.03
4.17,0,0,0,0.04,8.47,5.03
4.185,0,0,0.01,0,8.51,4.94
4.2,0,0,0,0.05,8.48,5.05
4.215,0,0,0,0.03,8.46,5.03
4.23,0,0,0,0,8.48,5.01
4.245,0,0,0,-0.04,8.47,4.96
4.26,0,0,0,-0.03,8.49,5.01
4.275,0,0,0,-0.03,8.52,4.98
4.29,0,0,0,-0.04,8.48,5.02
4.305,0,0,0.01,-0.01,8.46,5.04
4.32,0,0,0,-0.06,8.5,4.93
4.335,0,0,0,0.03,8.48,5.05
4.35,0,0,0,-0.03,8.51,4.9
4.365,0,0,0,0.01,8.5,5.03
4.38,0,0,0,0.03,8.49,5.03
4.395,0,0,0,0.02,8.48,4.99
4.41,0,0,0,0.04,8.49,5.02
4.425,0,0,0,0.01,8.54,4.96
4.44,0,0,0,-0.01,8.5,4.93
4.455,0,0,0,-0.05,8.49,4.94
4.47,0,0,0,0,8.47,5.07
4.485,0,0,0,-0.05,8.5,4.92
4.5,0,0,0,-0.07,8.5,4.95
4.515,0,0,0,-0.03,8.49,5.02
4.53,0,0,0,-0.04,8.49,4.98
4.545,0,0,0,-0.02,8.54,4.98
4.56,0,0,0,0,8.47,5.02
4.575,0,0,0,-0.01,8.52,4.95
4.59,0,0,0,0.02,8.51,4.95
4.605,0,0,0,0.07,8.45,5.08
4.62,0,0,0,0,8.48,4.96
4.635,0,0,0.01,-0.01,8.49,4.92
4.65,0,0,0,-0.03,8.5,4.95
4.665,0,0,0,-0.06,8.48,4.96
4.68,0,0,0,-0.04,8.5,4.99
4.695,0,0,0,-0.07,8.47,5
4.71,0,0,0,-0.03,8.48,5.03
4.725,0,0,0,-0.04,8.51,4.96
4.74,0,0,0,-0.01,8.45,5.07
4.755,0,0,0,-0.01,8.45,4.93
4.77,0,0,0,0.05,8.43,5.07
4.785,0,0,0,0.01,8.46,4.94
4.8,0,0,0,0,8.46,4.98
4.815,0,0,0,0.01,8.52,5
4.83,0,0,0,0,8.53,4.95
4.845,0,0,0,-0.03,8.51,4.99
4.86,0,0,0,0,8.47,5.05
4.875,0,0,0,0,8.47,5.06
4.89,0,0,0,-0.04,8.49,4.95
4.905,0,0,0,0.01,8.44,5.08
4.92,0,0,0,0.02,8.47,5.06
4.935,0,0,0,-0.03,8.49,4.99
4.95,0,0,0,0,8.49,5.03
4.965,0,0,0,-0.02,8.49,5.01
4.98,0,0,0.01,0.02,8.51,4.96
4.995,0,0,0,-0.01,8.52,4.96
5.01,0,0,0,0.01,8.46,5
5.025,0,0,0,-0.02,8.5,4.92
5.04,0,0,0,-0.02,8.5,4.95
5.055,0,0,0,0.01,8.44,5.04
5.07,0,0,0,0.02,8.48,5.03
5.085,0,0,0,-0.02,8.5,5.01
5.1,0,0,0,-0.03,8.5,5.01
5.115,0,0,0,0,8.52,4.99
5.13,0,0,0,-0.01,8.49,4.96
5.145,0,0,0,0,8.44,5.03
5.16,0,0,0,0,8.46,5.03
5.175,0,0,0,0,8.48,5.05
5.19,0,0,0,-0.03,8.5,4.93
5.205,0,0,0,-0.01,8.48,4.97
5.22,0,0,0,0.01,8.47,5.05
5.235,0,0,0,-0.03,8.47,5
5.25,0,0,0,0,8.49,5
5.265,0,0,0,-0.01,8.49,4.98
5.28,0,0,0,0,8.48,4.94
5.295,0,0,0,-0.04,8.51,4.93
5.31,0,0,0,0.01,8.45,5.05
5.325,0,0,0,-0.01,8.48,4.94
5.34,0,0,0,-0.02,8.49,4.93
5.355,0,0,0,0.02,8.47,5.05
5.37,0,0,0,0.02,8.48,5.04
5.385,0,0,0,0,8.5,4.99
5.4,0,0,0,-0.02,8.49,4.98
5.415,0,0,0,-0.02,8.46,5.02
5.43,0,0,0,-0.04,8.49,4.94
5.445,0,0,0,0,8.46,5.05
5.46,0,0,0,0,8.48,5.07
5.475,0,0,0,-0.04,8.5,4.94
5.49,0,0,0,0,8.48,5.05
5.505,0,0,0,-0.03,8.47,4.98
5.52,0,0,0,0,8.48,5.03
5.535,0,0,0,0,8.49,4.99
5.55,0,0,0,0,8.45,5.01
5.565,0,0,0,0.01,8.5,4.99
5.58,0,0,0,-0.02,8.52,4.93
5.595,0,0,0,0,8.51,4.92
5.61,0,0,0,0.02,8.46,5.05
5.625,0,0,0,0.02,8.51,5.03
5.64,0,0,0,-0.03,8.49,4.94
5.655,0,0,0,-0.01,8.48,5.04
5.67,0,0,0,0,8.5,4.98
5.685,0,0,0,-0.02,8.47,5
5.7,0,0,0,-0.01,8.51,4.95
5.715,0,0,0,0,8.48,5.04
5.73,0,0,0,0,8.52,4.93
5.745,0,0,0,-0.01,8.49,4.93
5.76,0,0,0,0.02,8.47,5.07
5.775,0,0,0,-0.03,8.48,4.92
5.79,0,0,0,-0.04,8.49,4.95
5.805,0,0,0,-0.01,8.49,5
5.82,0,0,0,-0.01,8.45,5
5.835,0,0,0,-0.02,8.51,4.97
5.85,0,0,0,0,8.47,5.02
5.865,0,0,0,0,8.47,5.05
5.88,0,0,0,-0.03,8.51,4.93
5.895,0,0,0,0.02,8.47,5.03
5.91,0,0,0,-0.02,8.48,4.94
5.925,0,0,0,0.01,8.51,5.02
5.94,0,0,0,-0.03,8.49,4.98
5.955,0,0,0,-0.03,8.5,4.99
5.97,0,0,0,0,8.51,5
5.985,0,0,0,0.01,8.51,4.94
6,0,0,0,0,8.49,5.03
6.015,0,0,0.01,0.02,8.44,5.07
6.03,0,0,0,0,8.47,5.04
6.045,0,0,0,-0.03,8.5,4.94
6.06,0,0,0,0.01,8.48,5.04
6.075,0,0,0,0,8.5,5.01
6.09,0,0,0,-0.01,8.51,5
6.105,0,0,0,-0.01,8.5,5
6.12,0,0,0,0,8.47,5.03
6.135,0,0,0,-0.03,8.52,4.93
6.15,0,0,0,0,8.51,4.95
6.165,0,0,0,0.01,8.47,5.06
6.18,0,0,0,0,8.5,4.93
6.195,0,0,0,0,8.47,4.95
6.21,0,0,0,0,8.46,5.03
6.225,0,0,0,0.02,8.47,5
6.24,0,0,0,-0.02,8.49,4.98
6.255,0,0,0,-0.01,8.47,5
6.27,0,0,0,-0.02,8.52,4.96
6.285,0,0,0,-0.02,8.51,4.92
6.3,0,0,0,0.01,8.46,5.04
6.315,0,0,0,-0.01,8.47,4.95
6.33,0,0,0,0.01,8.47,5.05
6.345,0,0,0,-0.01,8.49,4.97
6.36,0,0,0,-0.02,8.5,4.97
6.375,0,0,0,0,8.51,4.99
6.39,0,0,0,0,8.47,4.99
6.405,0,0,0,0,8.48,5.02
6.42,0,0,0,0,8.48,5.03
6.435,0,0,0,-0.01,8.51,4.95
6.45,0,0,0,-0.04,8.49,4.92
6.465,0,0,0,0,8.46,5.05
6.48,0,0,0,0,8.49,5.03
6.495,0,0,0,-0.03,8.49,4.97
6.51,0,0,0,0,8.51,5.01
6.525,0,0,0,-0.01,8.45,5.01
6.54,0,0,0,0.01,8.51,4.97
6.555,0,0,0,0,8.48,5.04
6.57,0,0,0,0,8.45,5.05
6.585,0,0,0,-0.06,8.49,4.93
6.6,0,0,0,0.03,8.47,5.02
6.615,0,0,0,0.03,8.49,5.04
6.63,0,0,0,0,8.5,5
6.645,0,0,0,0,8.5,4.98
6.66,0,0,0,-0.02,8.46,5
6.675,0,0,0,0,8.51,4.97
6.69,0,0,0,0,8.51,4.95
6.705,0,0,0,0,8.46,5.04
6.72,0,0,0,-0.03,8.51,4.92
6.735,0,0,0,0.02,8.47,5.04
6.75,0,0,0,-0.01,8.49,4.93
6.765,0,0,0,0.01,8.47,5.04
6.78,0,0,0,0,8.49,4.99
6.795,0,0,0.01,0,8.5,4.96
6.81,0,0,0,0.01,8.52,5
6.825,0,0,0,-0.01,8.51,4.96
6.84,0,0,0,-0.01,8.51,4.95
6.855,0,0,0,-0.02,8.5,4.93
6.87,0,0,0.01,0,8.46,5.05
6.885,0,0,0,-0.03,8.54,4.93
6.9,0,0,0,-0.06,8.48,4.96
6.915,0,0,0,0,8.49,5.05
6.93,0,0,0,-0.04,8.5,4.98
6.945,0,0,0,0,8.51,4.98
6.96,0,0,0,0,8.46,5.01
6.975,0,0,0,-0.02,8.51,4.93
6.99,0,0,0,0,8.48,4.94
7.005,0,0,0.01,0.02,8.43,5.04
7.02,0,0,0,0.01,8.47,5.03
7.035,0,0,0,-0.02,8.48,4.96
7.05,0,0,0,-0.04,8.47,4.96
7.065,0,0,0,-0.04,8.49,4.99
7.08,0,0,0,-0.02,8.5,5
7.095,0,0,0.01,-0.03,8.48,5
7.11,0,0,0,-0.02,8.49,5.02
7.125,0,0,0,0,8.5,4.95
7.14,0,0,0,0,8.47,5.01
7.155,0,0,0,-0.02,8.49,4.92
7.17,0,0,0,0.02,8.47,5.05
7.185,0,0,0,0,8.48,5.03
7.2,0,0,0.01,0,8.49,4.98
7.215,0,0,0,-0.01,8.52,5.01
7.23,0,0,0,0,8.5,4.99
7.245,0,0,0,-0.02,8.46,5.01
7.26,0,0,0,0,8.46,5.04
7.275,0,0,0,0.01,8.46,5.06
7.29,0,0,0,-0.02,8.5,4.96
7.305,0,0,0,0.02,8.46,5.06
7.32,0,0,0,0,8.49,5.01
7.335,0,0,0,-0.04,8.5,4.96
7.35,0,0,0,-0.02,8.49,4.96
7.365,0,0,0,-0.03,8.48,4.98
7.38,0,0,0,-0.02,8.48,4.94
7.395,0,0,0,-0.02,8.51,4.96
7.41,0,0,0,0,8.48,5.03
7.425,0,0,0,-0.02,8.51,4.94
7.44,0,0,0,0,8.5,4.94
7.455,0,0,0,0,8.47,5.05
7.47,0,0,0,0,8.48,5.03
7.485,0,0,0,0,8.49,5
7.5,0,0,0,-0.03,8.47,4.97
7.515,0,0,0,-0.01,8.46,5.02
7.53,0,0,0.01,-0.02,8.5,4.96
7.545,0,0,0,-0.01,8.46,5.05
7.56,0,0,0,0.01,8.47,5.06
7.575,0,0,0,0.03,8.48,5.04
7.59,0,0,0,-0.01,8.49,4.94
7.605,0,0,0,0,8.46,4.96
7.62,0,0,0,0.01,8.48,5.04
7.635,0,0,0,-0.02,8.48,5
7.65,0,0,0,0,8.48,5.02
7.665,0,0,0,0,8.53,4.97
7.68,0,0,0,-0.01,8.45,5.01
7.695,0,0,0,-0.01,8.5,4.94
7.71,0,0,0,0.01,8.48,5.05
7.725,0,0,0,0.03,8.44,5.06
7.74,0,0,0,-0.03,8.48,4.94
7.755,0,0,0,0,8.47,5.05
7.77,0,0,0,0.02,8.5,5.04
7.785,0,0,0,0,8.5,5.01
7.8,0,0,0,-0.01,8.48,5.02
7.815,0,0,0,0,8.48,5.03
7.83,0,0,0,-0.01,8.51,4.95
7.845,0,0,0,0,8.45,5.03
7.86,0,0,0,0.02,8.46,5.06
7.875,0,0,0,-0.04,8.49,4.93
7.89,0,0,0,0,8.49,5.05
7.905,0,0,0,-0.03,8.51,4.97
7.92,0,0,0,0,8.49,5.02
7.935,0,0,0,0,8.52,4.99
7.95,0,0,0,-0.03,8.46,5
7.965,0,0,0,-0.02,8.5,4.95
7.98,0,0,0,-0.01,8.49,4.93
7.995,0,0,0,-0.03,8.5,4.94
8.01,0,0,0,0.03,8.47,5.06
8.025,0,0,0,0,8.48,5.06
8.04,0,0,0,0,8.49,4.94
8.055,0,0,0,-0.03,8.5,4.98
8.07,0,0,0,0,8.52,5
8.085,0,0,0,0,8.47,5.01
8.1,0,0,0,-0.02,8.49,4.94
8.115,0,0,0,-0.01,8.48,5.04
8.13,0,0,0,-0.02,8.5,4.95
8.145,0,0,0,-0.03,8.5,4.93
8.16,0,0,0,0.02,8.48,5.05
8.175,0,0,0,0.03,8.49,5.03
8.19,0,0,0,-0.02,8.5,4.99
8.205,0,0,0,0,8.46,4.97
8.22,0,0,0,-0.01,8.45,5
8.235,0,0,0,0,8.51,4.95
8.25,0,0,0,-0.01,8.45,5.05
8.265,0,0,0,0,8.47,5.06
8.28,0,0,0,-0.04,8.51,4.93
8.295,0,0,0,0,8.47,5.04
8.31,0,0,0.01,-0.02,8.49,4.94
8.325,0,0,0.01,-0.01,8.48,5.02
8.34,0,0,0,-0.02,8.49,4.98
8.355,0,0,0,-0.02,8.46,4.99
8.37,0,0,0,0.01,8.5,4.98
8.385,0,0,0,-0.01,8.49,4.94
8.4,0,0,0,0,8.46,5.02
8.415,0,0,0,0,8.46,5.05
8.43,0,0,0,0.02,8.47,5.05
8.445,0,0,0,-0.03,8.49,4.91
8.46,0,0,0,0.01,8.47,5.03
8.475,0,0,0.01,0.01,8.49,5.02
8.49,0,0,0,-0.01,8.47,4.98
8.505,0,0,0,0,8.5,5
8.52,0,0,0,0,8.48,5.03
8.535,0,0,0,-0.01,8.5,4.93
8.55,0,0,0,-0.01,8.48,4.92
8.565,0,0,0,0,8.45,5.04
8.58,0,0,0.01,-0.02,8.49,4.95
8.595,0,0,0,-0.01,8.47,4.94
8.61,0,0,0,0.01,8.49,5.03
8.625,0,0,0,0,8.49,5.02
8.64,0,0,0,-0.02,8.5,4.98
8.655,0,0,0,0,8.45,5.02
8.67,0,0,0,0,8.48,5.02
8.685,0,0,0,-0.03,8.53,4.92
8.7,0,0,0,0,8.46,5.05
8.715,0,0,0,-0.03,8.49,4.93
8.73,0,0,0,0.04,8.49,5.02
8.745,0,0,0,-0.03,8.49,4.96
8.76,0,0,0,-0.02,8.49,4.99
8.775,0,0,0,-0.01,8.5,5.01
8.79,0,0,0,0,8.48,5
8.805,0,0,0,-0.01,8.48,5.02
8.82,0,0,0,-0.02,8.53,4.96
8.835,0,0,0,-0.04,8.49,4.94
8.85,0,0,0,-0.05,8.48,4.93
8.865,0,0,0,0,8.49,5.04
8.88,0,0,0,0,8.48,5.05
8.895,0,0,0,-0.06,8.48,4.98
8.91,0,0,0,-0.01,8.5,5.01
8.925,0,0,0,-0.03,8.47,5
8.94,0,0,0,0,8.51,4.95
8.955,0,0,0,-0.01,8.47,5.03
8.97,0,0,0.01,0,8.46,5.05
8.985,0,0,0,-0.01,8.51,4.91
9,0,0,0,0.01,8.48,5.07
9.015,0,0,0,0.03,8.47,5.07
9.03,0,0,0,-0.03,8.48,4.98
9.045,0,0,0,0,8.51,5.02
9.06,0,0,0,-0.03,8.5,4.99
9.075,0,0,0,-0.02,8.49,4.97
9.09,0,0,0,0,8.48,4.94
9.105,0,0,0,-0.02,8.46,5
9.12,0,0,0,-0.02,8.5,4.91
9.135,0,0,0,0.02,8.49,5.02
9.15,0,0,0,-0.02,8.52,4.93
9.165,0,0,0,0.05,8.48,5.04
9.18,0,0,0,0.04,8.5,5.02
9.195,0,0,0,0,8.49,5
9.21,0,0,0,-0.02,8.47,5.02
9.225,0,0,0,0,8.5,4.98
9.24,0,0,0,-0.03,8.47,5.01
9.255,0,0,0,-0.06,8.5,4.91
9.27,0,0,0,-0.01,8.45,5.06
9.285,0,0,0,-0.05,8.49,4.93
9.3,0,0,0,-0.03,8.51,4.96
9.315,0,0,0,0.01,8.5,5.02
9.33,0,0,0,0,8.52,4.97
9.345,0,0,0,0.01,8.5,4.98
9.36,0,0,0,0,8.49,5
9.375,0,0,0,0.01,8.49,4.96
9.39,0,0,0,0,8.52,4.91
9.405,0,0,0,0.01,8.44,5.04
9.42,0,0,0,0.01,8.49,5.04
9.435,0,0,0,-0.01,8.52,4.91
9.45,0,0,0,0.02,8.48,5.07
9.465,0,0,0,-0.03,8.48,4.95
9.48,0,0,0,-0.02,8.47,4.98
9.495,0,0,0,-0.05,8.46,5.01
9.51,0,0,0,-0.02,8.49,5.04
9.525,0,0,0,-0.03,8.5,4.95
9.54,0,0,0,-0.02,8.52,4.93
9.555,0,0,0,-0.04,8.44,4.94
9.57,0,0,0,0.03,8.46,5.07
9.585,0,0,0,0.01,8.52,5.05
9.6,0,0,0,0,8.49,4.97
9.615,0,0,0,0.02,8.5,5.03
9.63,0,0,0,0.01,8.49,4.98
9.645,0,0,0,0,8.49,5
9.66,0,0,0,0,8.45,5.03
9.675,0,0,0,-0.02,8.46,5.01
9.69,0,0,0,-0.04,8.52,4.94
9.705,0,0,0,-0.06,8.48,4.97
9.72,0,0,0,0,8.45,5.05
9.735,0,0,0,-0.02,8.47,4.97
9.75,0,0,0,-0.03,8.44,4.98
9.765,0,0,0,0,8.4,4.97
9.78,0,0,0,0.06,8.5,5.06
9.795,0,0,0,0.02,8.6,5.04
9.81,0,0,0,0,8.61,5.12
9.825,0,0,0,-0.03,8.62,4.98
9.84,0,0,0,-0.08,8.51,4.91
9.855,0,0,0.01,-0.03,8.42,4.99
9.87,0,0,0,0,8.37,4.9
9.885,0,0,0,0.04,8.42,4.95
9.9,0,0,0,-0.01,8.47,4.96
9.915,0,0,0,0,8.56,5.05
9.93,0,0,0,-0.02,8.62,5.06
9.945,0,0,0,-0.04,8.58,5.15
9.96,0,0,0,-0.02,8.53,5.13
9.975,0,0,0,0.03,8.39,5.04
9.99,0,0,0,-0.01,8.39,4.89
10.005,0,0,0,0.01,8.4,4.88
10.02,0,0,0,0.05,8.43,4.96
10.035,0,0,0,0,8.5,4.93
10.05,0,0,0,-0.04,8.56,5.03
10.065,0,0,0,-0.04,8.6,5.04
10.08,0,0,0.01,-0.01,8.43,5.08
10.095,0,0,0,-0.06,8.46,4.98
10.11,0,0,0,-0.01,8.42,5.04
10.125,0,0,0,0,8.44,5.01
10.14,0,0,0,-0.03,8.48,4.89
10.155,0,0,0,0.01,8.47,5
10.17,0,0,0,0.03,8.52,5.03
10.185,0,0,0,0.03,8.52,5.03
10.2,0,0,0,0,8.5,5.04
10.215,0,0,0,0.01,8.46,5.03
10.23,0,0,0,-0.01,8.47,4.96
10.245,0,0,0,-0.06,8.49,4.92
10.26,0,0,0,0,8.44,5.03
10.275,0,0,0,-0.05,8.48,4.91
10.29,0,0,0,0,8.5,5.01
10.305,0,0,0,-0.04,8.5,4.97
10.32,0,0,0,0,8.48,5
10.335,0,0,0,0,8.54,5.01
10.35,0,0,0,0,8.47,5
10.365,0,0,0,-0.02,8.52,4.93
10.38,0,0,0,-0.02,8.49,4.95
10.395,0,0,0,-0.02,8.5,4.97
10.41,0,0,0,-0.01,8.5,4.96
10.425,0,0,0,0,8.5,5.05
10.44,0,0,0,-0.02,8.51,4.94
10.455,0,0,0,-0.01,8.47,5
10.47,0,0,0,0,8.5,4.95
10.485,0,0,0,0,8.49,4.98
10.5,0,0,0,-0.04,8.53,4.91
10.515,0,0,0,-0.01,8.48,5.02
10.53,0,0,0,0,8.46,5.05
10.545,0,0,0,-0.02,8.48,4.94
10.56,0,0,0,0.01,8.47,5.05
10.575,0,0,0,0.04,8.48,5.05
10.59,0,0,0,-0.01,8.48,4.96
10.605,0,0,0,0,8.43,4.98
10.62,0,0,0,0,8.41,4.97
10.635,0,0,0,0,8.47,4.94
10.65,0,0,0,0,8.43,5.07
10.665,0,0,0,0.02,8.5,5.12
10.68,0,0,0,-0.03,8.53,5
10.695,0,0,0,0,8.48,5.11
10.71,0,0,0,-0.03,8.45,4.95
10.725,0,0,0,-0.01,8.47,4.99
10.74,0,0,0,0,8.47,4.96
10.755,0,0,0,-0.02,8.51,4.96
10.77,0,0,0,0,8.52,4.96
10.785,0,0,0,-0.02,8.57,4.92
10.8,0,0,0,0.02,8.49,5.05
10.815,0,0,0,0,8.5,5.06
10.83,0,0,0,0,8.5,5.05
10.845,0,0,0,-0.02,8.53,4.92
10.86,0,0,0,0.02,8.49,5.02
10.875,0,0,0,0.02,8.47,5
10.89,0,0,0,-0.03,8.47,4.99
10.905,0,0,0,0,8.49,5.01
10.92,0,0,0,0,8.47,5.08
10.935,0,0,0,-0.01,8.55,4.98
10.95,0,0,0,0,8.53,4.9
10.965,0,0,0,0.03,8.49,5
10.98,0,0,0,0,8.49,4.92
10.995,0,0,0,-0.02,8.46,4.92
11.01,0,0,0,0.01,8.5,5
11.025,0,0,0,0,8.49,5.03
11.04,0,0,0,-0.03,8.51,5
11.055,0,0,0,-0.01,8.47,5.02
11.07,0,0,0,0,8.45,5.01
11.085,0,0,0,-0.06,8.48,4.93
11.1,0,0,0,0.01,8.44,5.06
11.115,0,0,0,-0.03,8.49,4.92
11.13,0,0,0,0.01,8.51,5
11.145,0,0,0,-0.02,8.51,4.93
11.16,0,0,0,0,8.49,4.98
11.175,0,0,0,0.02,8.54,4.96
11.19,0,0,0,0.01,8.47,5.02
11.205,0,0,0,0.02,8.46,5.05
11.22,0,0,0,0,8.5,4.96
11.235,0,0,0,0.03,8.46,5.03
11.25,0,0,0,-0.04,8.49,4.88
11.265,0,0,0,0.02,8.51,5.04
11.28,0,0,0,0,8.53,5.01
11.295,0,0,0,-0.04,8.5,4.97
11.31,0,0,0,-0.03,8.51,5.02
11.325,0,0,0,-0.01,8.47,5.06
11.34,0,0,0,-0.05,8.48,5.04
11.355,0,0,0,0,8.43,5.1
11.37,0,0,0,0.04,8.43,5.07
11.385,0,0,0,0.02,8.47,4.92
11.4,0,0,0,0.03,8.45,4.93
11.415,0,0,0,0.06,8.44,5.04
11.43,0,0,0,0.03,8.48,4.98
11.445,0,0,0,0,8.54,5
11.46,0,0,0,-0.02,8.5,5.02
11.475,0,0,0.01,-0.02,8.51,4.97
11.49,0,0,0,-0.08,8.49,4.92
11.505,0,0,0,-0.03,8.45,5.01
11.52,0,0,0,-0.09,8.53,4.88
11.535,0,0,0,-0.01,8.48,5.02
11.55,0,0,0,-0.04,8.5,4.9
11.565,0,0,0,0.03,8.47,5.03
11.58,0,0,0,0.03,8.51,5
11.595,0,0,0,0.01,8.49,5.01
11.61,0,0,0,0.02,8.45,5.08
11.625,0,0,0,0.01,8.49,5.01
11.64,0,0,0,0,8.47,5.06
11.655,0,0,0,-0.02,8.51,4.9
11.67,0,0,0,0.03,8.46,5.03
11.685,0,0,0,-0.03,8.48,4.89
11.7,0,0,0,-0.04,8.51,4.91
11.715,0,0,0,-0.03,8.5,4.98
11.73,0,0,0,-0.01,8.53,5
11.745,0,0,0,-0.01,8.51,4.97
11.76,0,0,0,-0.01,8.46,5.02
11.775,0,0,0,-0.01,8.47,5.07
11.79,0,0,0,-0.03,8.49,4.97
11.805,0,0,0,0.01,8.45,5.09
11.82,0,0,0,0.04,8.46,5.07
11.835,0,0,0,0,8.48,4.96
11.85,0,0,0,0,8.47,5.05
11.865,0,0,0,-0.02,8.49,4.97
11.88,0,0,0,0.03,8.5,4.99
11.895,0,0,0,0,8.47,5.02
11.91,0,0,0,-0.02,8.47,5.04
11.925,0,0,0,0,8.49,4.96
11.94,0,0,0,-0.02,8.53,4.93
11.955,0,0,0,0,8.55,4.93
11.97,0,0,0,0,8.53,5
11.985,0,0,0,0.01,8.51,5.01
12,0,0,0,0,8.47,4.94
12.015,0.01,0,0,0.02,8.51,5
12.03,0,0,0,-0.01,8.45,4.98
12.045,0,0,0,-0.02,8.42,5.05
12.06,0,0,0,0,8.46,5.03
12.075,0,0,0,-0.01,8.46,5.09
12.09,0,0,0,-0.01,8.52,4.95
12.105,0,0,0,-0.03,8.5,4.9
12.12,0,0,0,0,8.47,5.03
12.135,0,0,0,-0.02,8.48,4.91
12.15,0,0,0,-0.02,8.44,4.9
12.165,0,0,0,-0.02,8.52,4.98
12.18,0,0,0,-0.02,8.54,4.97
12.195,0,0,0,-0.03,8.54,4.96
12.21,0,0,0,0,8.47,5.07
12.225,0,0,0,-0.01,8.5,4.96
12.24,0,0,0,0,8.49,4.94
12.255,0,0,0,0.03,8.46,5.07
12.27,0,0,0,-0.01,8.49,4.96
12.285,0,0,0,0.02,8.5,5.02
12.3,0,0,0,-0.03,8.46,5
12.315,0,0,0,-0.01,8.49,5
12.33,0,0,0,-0.01,8.52,4.99
12.345,0,0,0,-0.02,8.49,5
12.36,0,0,0,-0.01,8.47,5.02
12.375,0,0,0,0.01,8.46,5.03
12.39,0,0,0,0.06,8.46,5.06
12.405,0,0,0,-0.01,8.46,4.92
12.42,0,0,0,0.01,8.46,5.02
12.435,0,0,0,0.01,8.48,4.98
12.45,0,0,0,-0.03,8.47,5
12.465,0,0,0,0,8.51,5.01
12.48,0,0,0,-0.02,8.46,5.01
12.495,0,0,0,-0.05,8.52,4.96
12.51,0,0,0,-0.02,8.45,5.04
12.525,0,0,0,0,8.45,5.06
12.54,0,0,0,-0.01,8.5,4.93
12.555,0,0,0,0.03,8.48,5.03
12.57,0,0,0,0.05,8.48,5.03
12.585,0,0,0,0.01,8.55,5.01
12.6,0,0,0,0.02,8.5,5
12.615,0,0,0,0,8.49,5.01
12.63,0,0,0,-0.02,8.49,4.96
12.645,0,0,0,-0.04,8.47,4.94
12.66,0,0,0,0.01,8.47,5.07
12.675,0,0,0,-0.02,8.5,4.91
12.69,0,0,0,0.02,8.45,5.01
12.705,0,0,0,-0.01,8.47,4.95
12.72,0,0,0,0,8.5,5.03
12.735,0,0,0,0,8.54,4.95
12.75,0,0,0,0,8.5,4.98
12.765,0,0,0,0,8.48,4.98
12.78,0,0,0,-0.03,8.47,4.9
12.795,0,0,0,-0.04,8.49,4.85
12.81,0,0,0,-0.06,8.54,4.89
12.825,0,0,0,-0.02,8.49,5.05
12.84,0,0,0,-0.05,8.53,4.93
12.855,0,0,0,-0.02,8.48,5
12.87,0,0,0,0.02,8.44,5.1
12.885,0,0,0,0.03,8.4,5.01
12.9,0,0,0,0.04,8.48,4.99
12.915,0,0,0,0,8.48,5
12.93,0,0,0,0,8.52,5.08
12.945,0,0,0,-0.03,8.54,4.92
12.96,0,0,0,0,8.48,4.98
12.975,0,0,0,-0.01,8.46,5.01
12.99,0,0,0,-0.05,8.47,4.89
13.005,0,0,0,-0.05,8.49,4.94
13.02,0,0,0,-0.05,8.52,4.96
13.035,0,0,0,-0.02,8.55,4.97
13.05,0,0,0,-0.01,8.49,5.06
13.065,0,0,0,0,8.47,5.06
13.08,0,0,0,0.01,8.47,4.95
13.095,0,0,0,0.06,8.43,5.02
13.11,0,0,0,0.02,8.48,4.91
13.125,0,0,0,0.01,8.5,5.06
13.14,0,0,0,0.01,8.54,5.03
13.155,0,0,0.01,-0.05,8.53,4.97
13.17,0,0,0,-0.02,8.53,4.98
13.185,0,0,0,0,8.51,4.97
13.2,0,0,0.01,-0.03,8.5,5.02
13.215,0,0,0,0.01,8.46,5
13.23,0,0,0,0.02,8.47,5.03
13.245,0,0,0,-0.02,8.49,4.93
13.26,0,0,0,-0.02,8.48,4.97
13.275,0,0,0,0.04,8.5,5.04
13.29,0,0,0,-0.01,8.47,4.98
13.305,0,0,0,-0.05,8.49,5.01
13.32,0,0,0,-0.07,8.5,5.03
13.335,0,0,0,-0.03,8.5,4.96
13.35,0,0,0,-0.03,8.5,4.92
13.365,0,0,0,0.02,8.47,5.03
13.38,0,0,0,0,8.49,4.89
13.395,0,0,0,0,8.5,4.93
13.41,0,0,0,0.02,8.51,5.02
13.425,0,0,0,-0.01,8.48,4.98
13.44,0,0,0,0,8.51,4.99
13.455,0,0,0,0,8.46,5.01
13.47,0,0,0,0,8.45,5.01
13.485,0,0,0,-0.02,8.52,4.96
13.5,0,0,0,0,8.45,5.05
13.515,0,0,0,-0.03,8.5,4.91
13.53,0,0,0,0,8.46,5.05
13.545,0,0,0,-0.04,8.49,4.9
13.56,0,0,0,-0.02,8.45,4.96
13.575,0,0,0,-0.01,8.5,5
13.59,0,0,0,-0.03,8.48,4.99
13.605,0,0,0,0,8.47,5.01
13.62,0,0,0,-0.02,8.54,4.94
13.635,0,0,0,0.01,8.47,5.02
13.65,0,0,0,-0.02,8.52,4.91
13.665,0,0,0,0.02,8.46,5.02
13.68,0,0,0,0.01,8.45,5.04
13.695,0,0,0,-0.01,8.49,4.94
13.71,0,0,0,0,8.5,5.02
13.725,0,0,0,-0.04,8.5,4.99
13.74,0,0,0,-0.01,8.53,4.99
13.755,0,0,0,-0.02,8.48,5.03
13.77,0,0,0,0,8.46,5.02
13.785,0,0,0,-0.02,8.5,4.91
13.8,0,0,0,-0.04,8.47,4.92
13.815,0,0,0,0.01,8.45,5.04
13.83,0,0,0,-0.03,8.49,4.93
13.845,0,0,0,0.02,8.48,5
13.86,0,0,0,-0.02,8.46,4.97
13.875,0,0,0,0,8.51,5.02
13.89,0,0,0,0.02,8.52,4.95
13.905,0,0,0,0,8.5,5.04
13.92,0,0,0,-0.01,8.51,4.92
13.935,0,0,0,0.01,8.45,5.02
13.95,0,0,0,-0.03,8.5,4.89
13.965,0,0,0,-0.03,8.5,4.95
13.98,0,0,0,0,8.49,5.05
13.995,0,0,0,-0.01,8.5,4.98
14.01,0,0,0,0,8.48,4.98
14.025,0,0,0,0,8.51,4.95
14.04,0,0,0,0,8.48,5.01
14.055,0,0,0,-0.01,8.5,4.92
14.07,0,0,0,0.03,8.47,5.06
14.085,0,0,0,-0.03,8.5,4.94
14.1,0,0,0,-0.03,8.52,4.93
14.115,0,0,0,0.03,8.51,5.05
14.13,0,0,0,0.02,8.52,5.03
14.145,0,0,0,0.01,8.5,5
14.16,0,0,0,-0.01,8.48,4.98
14.175,0,0,0,0.01,8.46,5.01
14.19,0,0,0,-0.01,8.51,4.91
14.205,0,0,0,0.01,8.49,5.03
14.22,0,0,0,0.02,8.48,5.05
14.235,0,0,0,-0.01,8.51,4.93
14.25,0,0,0,0.02,8.49,5.03
14.265,0,0,0,-0.03,8.47,4.95
14.28,0,0,0,0,8.5,5.02
14.295,0,0,0,-0.02,8.51,4.98
14.31,0,0,0,-0.04,8.49,5
14.325,0,0,0,-0.03,8.54,4.96
14.34,0,0,0,-0.01,8.49,4.95
14.355,0,0,0,-0.02,8.51,4.94
14.37,0,0,0,0,8.48,5.06
14.385,0,0,0.01,0,8.49,5.04
14.4,0,0,0,-0.03,8.51,4.94
14.415,0,0,0,0.03,8.49,5.02
14.43,0,0,0,0,8.5,5.02
14.445,0,0,0,-0.01,8.49,4.99
14.46,0,0,0,0,8.5,4.97
14.475,0,0,0,0.01,8.46,5.03
14.49,0,0,0,-0.01,8.51,4.92
14.505,0,0,0,-0.03,8.49,4.92
14.52,0,0,0,0,8.47,5.06
14.535,0,0,0,-0.03,8.51,4.93
14.55,0,0,0,-0.05,8.47,4.94
14.565,0,0,0,-0.01,8.47,4.97
14.58,0,0,0,0,8.5,4.99
14.595,0,0,0,0,8.53,4.97
14.61,0,0,0,-0.01,8.46,5.01
14.625,0,0,0,0.02,8.46,5.05
14.64,0,0,0,-0.01,8.49,4.93
14.655,0,0,0,0.01,8.47,5.06
14.67,0,0,0,0,8.5,4.95
14.685,0,0,0,0.04,8.49,5.07
14.7,0,0,0,-0.01,8.49,4.98
14.715,0,0,0,0,8.47,5
14.73,0,0,0,0,8.49,4.98
14.745,0,0,0,-0.01,8.46,4.99
14.76,0,0,0,-0.03,8.46,5.01
14.775,0.01,0,0,-0.01,8.48,5
14.79,0,0,0,0.01,8.46,5.05
14.805,0,0,0,-0.03,8.5,4.93
14.82,0,0,0,0,8.46,5.02
14.835,0,0,0,0.02,8.49,5.04
14.85,0,0,0,-0.03,8.48,4.96
14.865,0,0,0,0.01,8.48,5
14.88,0,0,0,0,8.5,5.01
14.895,0,0,0,0,8.52,4.97
14.91,0,0,0,0,8.46,5.04
14.925,0,0,0,0.02,8.47,5.05
14.94,0,0,0,-0.02,8.5,4.92
14.955,0,0,0,-0.02,8.49,4.94
14.97,0,0,0,0.01,8.5,5.02
14.985,0,0,0,-0.01,8.5,5
15,0,0,0,0,8.49,5
15.015,0,0,0,-0.02,8.46,4.99
15.03,0,0,0,-0.01,8.48,4.93
15.045,0,0,0,-0.04,8.53,4.97
15.06,0,0,0,0,8.47,5.06
15.075,0,0,0,-0.03,8.51,4.92
15.09,0,0,0,0,8.5,5.03
15.105,0,0,0,-0.02,8.5,4.95
15.12,0,0,0,0.01,8.49,5.04
15.135,0,0,0,0.01,8.5,5.03
15.15,0,0,0,-0.01,8.48,4.99
15.165,0,0,0,0,8.46,5.02
15.18,0,0,0,0.01,8.49,4.94
15.195,0,0,0,0,8.5,4.92
15.21,0,0,0,0,8.51,4.92
15.225,0,0,0,0.04,8.46,5.04
15.24,0,0,0,-0.01,8.47,4.92
15.255,0,0,0,0,8.51,4.96
15.27,0,0,0,0.04,8.51,5.04
15.285,0,0,0,-0.02,8.5,4.96
15.3,0,0,0,-0.03,8.51,4.97
15.315,0,0,0,-0.04,8.48,5.01
15.33,0,0,0,-0.03,8.46,5.03
15.345,0,0,0,-0.06,8.49,4.95
15.36,0,0,0,-0.01,8.45,5.09
15.375,0,0,0,0,8.45,5.08
15.39,0,0,0,-0.03,8.49,4.96
15.405,0,0,0,-0.01,8.49,4.96
15.42,0,0,0,-0.02,8.45,4.97
15.435,0,0,0,0,8.49,4.98
15.45,0,0,0,-0.04,8.46,5.01
15.465,0,0,0,0,8.49,4.99
15.48,0,0,0,-0.03,8.51,4.93
15.495,0,0,0,0,8.48,5.05
15.51,0,0,0,-0.03,8.5,4.95
15.525,0,0,0,0.01,8.45,5.03
15.54,0,0,0,0.05,8.49,5.06
15.555,0,0,0,0,8.47,4.98
15.57,0,0,0,0.03,8.49,5.03
15.585,0,0,0,0.01,8.55,4.98
15.6,0,0,0,-0.01,8.47,5.01
15.615,0,0,0,-0.02,8.48,5.04
15.63,0,0,0,-0.02,8.45,5.03
15.645,0,0,0,-0.06,8.49,4.94
15.66,0,0,0,-0.03,8.48,4.91
15.675,0,0,0,0,8.46,5.03
15.69,0,0,0,-0.03,8.5,4.95
15.705,0,0,0,0.04,8.52,4.99
15.72,0,0,0,0,8.48,4.99
15.735,0,0,0,0.04,8.5,4.98
15.75,0,0,0,-0.01,8.51,4.94
15.765,0,0,0,0,8.47,5.01
15.78,0,0,0,-0.02,8.51,4.94
15.795,0,0,0,-0.04,8.5,4.93
15.81,0,0,0,-0.02,8.48,5.06
15.825,0,0,0,-0.01,8.49,4.97
15.84,0,0,0,-0.01,8.51,5.03
15.855,0,0,0,-0.02,8.48,4.99
15.87,0,0,0,-0.03,8.48,4.97
15.885,0,0,0,-0.01,8.52,4.94
15.9,0,0,0,-0.01,8.49,5.01
15.915,0,0,0,-0.03,8.51,4.93
15.93,0,0,0,-0.01,8.47,5.07
15.945,0,0,0,0.01,8.49,5.06
15.96,0,0,0,-0.05,8.49,4.95
15.975,0,0,0,0,8.48,5.03
15.99,0,0,0,0,8.49,5.03
16.005,0,0,0,0,8.48,5
16.02,0,0,0,0.03,8.51,4.98
16.035,0,0,0,0.01,8.46,5.01
16.05,0,0,0,-0.02,8.5,4.94
16.065,0,0,0,0.04,8.45,5.05
16.08,0,0,0,0,8.46,5.04
16.095,0,0,0,-0.03,8.51,4.91
16.11,0,0,0,0,8.47,5.06
16.125,0,0,0,0,8.49,4.98
16.14,0,0,0,0.02,8.47,5.02
16.155,0,0,0,0.01,8.53,4.97
16.17,0,0,0,-0.02,8.49,5.03
16.185,0,0,0,-0.02,8.53,4.97
16.2,0,0,0,-0.06,8.5,4.94
16.215,0,0,0,0,8.47,5.03
16.23,0,0,0,-0.05,8.49,4.91
16.245,0,0,0,0,8.49,5
16.26,0,0,0,-0.02,8.52,4.91
16.275,0,0,0.01,0,8.52,4.97
16.29,0,0,0,0.02,8.51,4.95
16.305,0.01,0.01,0,0,8.45,4.97
16.32,0.02,0.01,0,-0.02,8.46,5.06
16.335,0.01,0.01,0,0,8.36,5.03
16.35,0.01,0.01,0,0.02,8.44,4.97
16.365,0.01,0,0,0.03,8.55,5.02
16.38,0.01,0,0,0,8.5,5.03
16.395,0.01,0,0,-0.04,8.56,4.94
16.41,0.01,0.01,0.01,-0.03,8.61,4.96
16.425,0.01,0,0,0,8.58,4.94
16.44,0.01,0,0,-0.03,8.49,4.89
16.455,0.01,0,0,-0.03,8.39,4.96
16.47,0.01,0,0,-0.03,8.34,5.02
16.485,0,0,0,-0.07,8.43,5.02
16.5,0,0,0,-0.06,8.48,5.01
16.515,0,0,0,0,8.5,5.13
16.53,0,0,0,0.03,8.54,5.1
16.545,0,0,0,0.05,8.49,5.02
16.56,0,0,0,0.02,8.47,4.98
16.575,0,0,0,0.06,8.43,4.99
16.59,0,0,0,0.05,8.47,4.93
16.605,0,0,0,0.03,8.49,4.98
16.62,0,0,0,0,8.48,5.02
16.635,0,0,0,-0.05,8.51,4.94
16.65,0,0,0,-0.01,8.49,5.02
16.665,0.01,0,0.01,-0.04,8.48,5.01
16.68,0,0,0,0,8.47,5.06
16.695,0,0,0,0.01,8.49,5.04
16.71,0,0,0,-0.02,8.48,5.03
16.725,0,0,0,0,8.47,5.03
16.74,0,0,0,-0.01,8.44,5.01
16.755,0,0,0,0,8.46,4.97
16.77,0,0,0,0.02,8.44,5.06
16.785,0,0,0,0.03,8.52,5.06
16.8,0,0,0.01,-0.01,8.54,4.99
16.815,0,0,0,0.04,8.52,5.04
16.83,0,0,0,0.03,8.51,5.03
16.845,0,0,0,0,8.49,5.02
16.86,0,0,0,0,8.46,4.99
16.875,0,0,0,0,8.45,5.04
16.89,0,0,0,-0.02,8.47,5
16.905,0,0,0,-0.01,8.47,4.95
16.92,0,0,0,0,8.47,5.05
16.935,0,0,0,-0.02,8.49,4.96
16.95,0,0,0,-0.02,8.49,4.98
16.965,0,0,0,-0.03,8.47,4.99
16.98,0,0,0,-0.01,8.48,4.99
16.995,0,0,0,0.01,8.47,5.03
17.01,0,0,0,-0.02,8.45,4.99
17.025,0,0,0,0,8.46,5.01
17.04,0,0,0,0,8.5,4.97
17.055,0,0,0,0.02,8.45,5.04
17.07,0,0,0,-0.03,8.5,4.95
17.085,0,0,0,0.02,8.47,5.06
17.1,0,0,0,-0.04,8.49,4.95
17.115,0,0,0,-0.01,8.43,4.97
17.13,0,0,0,0,8.44,5.02
17.145,0,0,0,0,8.44,5.02
17.16,0,0,0,-0.03,8.44,5.06
17.175,0,0,0,-0.01,8.47,5.06
17.19,0,0,0,0,8.53,5.04
17.205,0,0,0,-0.02,8.53,4.98
17.22,0,0,0,0.05,8.48,5.06
17.235,0,0,0,0.06,8.44,5
17.25,0,0,0,0.03,8.44,4.95
17.265,0,0,0,0.06,8.46,5.02
17.28,0,0,0,-0.04,8.46,5.04
17.295,0,0,0,-0.01,8.48,5.04
17.31,0,0,0,-0.01,8.44,5.08
17.325,0,0,0.01,-0.01,8.47,5.05
17.34,0,0,0,-0.05,8.5,4.98
17.355,0,0,0,-0.04,8.47,4.94
17.37,0,0,0,0.02,8.47,5.03
17.385,0,0,0,0.04,8.49,5
17.4,0,0,0,0.02,8.47,4.98
17.415,0,0,0,0,8.49,4.94
17.43,0,0,0,0.03,8.54,4.98
17.445,0,0,0,0.03,8.51,5
17.46,0,0,0,0.04,8.47,5.03
17.475,0,0,0.01,-0.03,8.45,4.93
17.49,0,0,0,0.02,8.45,5.04
17.505,0,0,0,-0.05,8.47,4.99
17.52,0,0,0,-0.03,8.46,5.03
17.535,0,0,0,0,8.45,5.08
17.55,0,0,0,-0.04,8.45,5.03
17.565,0,0,0,-0.03,8.44,5.04
17.58,0,0,0,-0.03,8.47,5.04
17.595,0,0,0,0,8.51,5.01
17.61,0,0,0,-0.03,8.46,4.95
17.625,0,0,0,0,8.45,5.03
17.64,0,0,0,-0.02,8.49,4.94
17.655,0,0,0,0,8.5,4.94
17.67,0,0,0,0.02,8.51,4.98
17.685,0,0,0,0.02,8.5,4.97
17.7,0,0,0,0.03,8.53,4.99
17.715,0,0,0,0.01,8.46,5
17.73,0,0,0,0,8.45,4.98
17.745,0,0,0,-0.02,8.49,4.93
17.76,0,0,0,0.01,8.47,5.02
17.775,0,0,0,0,8.48,5.06
17.79,0,0,0,-0.02,8.51,4.97
17.805,0,0,0,-0.04,8.49,5
17.82,0,0,0,-0.01,8.47,4.99
17.835,0,0,0,-0.02,8.45,5.01
17.85,0,0,0,0,8.46,4.98
17.865,0,0,0,-0.01,8.49,4.99
17.88,0,0,0,0,8.52,4.95
17.895,0,0,0,0.02,8.46,5.06
17.91,0,0,0,-0.02,8.49,4.98
17.925,0,0,0,0.02,8.45,5.07
17.94,0,0,0,0.01,8.47,5.03
17.955,0,0,0,-0.04,8.46,4.97
17.97,0,0,0,0,8.47,5.04
17.985,0,0,0,-0.02,8.5,5.01
18,0,0,0,-0.05,8.48,4.98
18.015,0,0,0,0,8.52,4.99
18.03,0,0,0,0.02,8.48,5.05
18.045,0,0,0,0.01,8.48,4.96
18.06,0,0,0,0.03,8.48,4.95
18.075,0,0,0,0.05,8.46,5.03
18.09,0,0,0,-0.02,8.45,4.94
18.105,0,0,0,0,8.49,5.02
18.12,0,0,0,-0.04,8.47,5.03
18.135,0,0,0,-0.03,8.49,5.03
18.15,0,0,0,-0.01,8.51,4.97
18.165,0,0,0,-0.03,8.47,5
18.18,0,0,0,0,8.48,5.04
18.195,0,0,0.01,-0.02,8.5,4.94
18.21,0,0,0,0,8.45,5.06
18.225,0,0,0,-0.04,8.49,4.95
18.24,0,0,0,0,8.47,5.03
18.255,0,0,0,0,8.48,4.99
18.27,0,0,0,-0.03,8.5,5.01
18.285,0,0,0,0,8.49,5.01
18.3,0,0,0,-0.02,8.48,5.01
18.315,0,0,0,-0.02,8.47,4.95
18.33,0,0,0,0.03,8.45,5.04
18.345,0,0,0.01,0.03,8.47,5.05
18.36,0,0,0,0,8.51,4.96
18.375,0,0,0,0.03,8.51,5.03
18.39,0,0,0,0,8.47,5.04
18.405,0,0,0,-0.05,8.47,4.98
18.42,0,0,0,-0.01,8.49,4.99
18.435,0,0,0,-0.03,8.42,5
18.45,0,0,0,-0.01,8.46,4.95
18.465,0,0,0,0,8.45,5.03
18.48,0,0,0,0.01,8.47,5.03
18.495,0,0,0,-0.04,8.51,4.97
18.51,0,0,0,0,8.51,4.95
18.525,0,0,0,-0.01,8.45,4.96
18.54,0,0,0,0.04,8.49,5.02
18.555,0,0,0,0,8.5,5
18.57,0,0,0,-0.03,8.47,5.01
18.585,0,0,0,-0.01,8.47,4.96
18.6,0,0,0,-0.02,8.51,4.96
18.615,0,0,0,0,8.47,5.02
18.63,0,0,0,-0.01,8.52,4.97
18.645,0,0,0,0,8.47,5.04
18.66,0,0,0,-0.03,8.47,4.95
18.675,0,0,0,0,8.47,5.01
18.69,0,0,0,0,8.47,5.02
18.705,0,0,0,-0.01,8.48,5
18.72,0,0,0,-0.03,8.47,5.01
18.735,0,0,0,-0.01,8.48,5
18.75,0,0,0,-0.03,8.49,4.97
18.765,0,0,0.01,-0.03,8.51,4.93
18.78,0,0,0,0.02,8.47,5.04
18.795,0,0,0,-0.01,8.49,4.95
18.81,0,0,0,-0.02,8.48,4.97
18.825,0,0,0,0.03,8.47,5.02
18.84,0,0,0,-0.01,8.46,5.01
18.855,0,0,0,0,8.49,5
18.87,0,0,0,0,8.48,5.02
18.885,0,0,0,0,8.51,5.06
18.9,0,0,0,-0.01,8.51,4.96
18.915,0,0,0,0.03,8.46,5.05
18.93,0,0,0,0.05,8.45,5.03
18.945,0,0,0,0.01,8.44,5.03
18.96,0,0,0,-0.02,8.47,4.98
18.975,0,0,0.01,-0.02,8.47,4.97
18.99,0,0,0,0.01,8.5,5
19.005,0,0,0,0,8.52,4.99
19.02,0,0,0,0,8.48,5.01
19.035,0,0,0,-0.01,8.48,4.97
19.05,0,0,0,0.02,8.46,5.03
19.065,0,0,0,0,8.47,4.95
19.08,0,0,0,0.01,8.46,5.03
19.095,0,0,0,0,8.49,5.03
19.11,0,0,0,0,8.51,5.01
19.125,0,0,0,0,8.5,5.04
19.14,0,0,0,-0.02,8.48,5
19.155,0,0,0,0,8.49,4.99
19.17,0,0,0,-0.01,8.43,5.01
19.185,0,0,0,0.01,8.46,5.05
19.2,0,0,0,0,8.49,4.95
19.215,0,0,0,-0.01,8.49,4.96
19.23,0,0,0,0.04,8.5,5.02
19.245,0,0,0,0,8.48,4.97
19.26,0,0,0,0.01,8.48,5
19.275,0,0,0,-0.02,8.48,5.01
19.29,0,0,0,0.01,8.5,5.02
19.305,0,0,0,-0.03,8.51,5
19.32,0,0,0,-0.02,8.5,5.06
19.335,0,0,0,0.01,8.46,5.05
19.35,0,0,0,-0.02,8.47,4.94
19.365,0,0,0,-0.02,8.48,4.95
19.38,0,0,0,-0.03,8.47,4.95
19.395,0,0,0,0.02,8.48,5.03
19.41,0,0,0,-0.01,8.48,5
19.425,0,0,0,0,8.48,5.01
19.44,0,0,0,-0.03,8.5,5.02
19.455,0,0,0,0,8.46,5
19.47,0,0,0,-0.01,8.5,4.92
19.485,0,0,0,0,8.47,5.06
19.5,0,0,0,-0.04,8.49,4.97
19.515,0,0,0,0,8.49,4.99
19.53,0,0,0,0,8.49,5.06
19.545,0,0,0,0,8.5,5.03
19.56,0,0,0,-0.07,8.5,4.97
19.575,0,0,0,-0.01,8.46,4.97
19.59,0,0,0,0,8.47,5.02
19.605,0,0,0,-0.01,8.5,4.95
19.62,0,0,0,0.03,8.47,5.06
19.635,0,0,0,0.03,8.48,5.05
19.65,0,0,0,-0.06,8.52,4.97
19.665,0,0,0,-0.05,8.48,4.97
19.68,0,0,0,-0.05,8.44,4.96
19.695,0,0,0,0.01,8.45,4.97
19.71,0,0,0,0,8.49,5.02
19.725,0,0,0,0.01,8.46,5.02
19.74,0,0,0,0.03,8.49,4.96
19.755,0,0,0,-0.01,8.52,4.96
19.77,0,0,0,0.03,8.48,5.05
19.785,0,0,0,0.03,8.47,5.04
19.8,0,0,0,0.04,8.48,5.04
19.815,0,0,0,-0.01,8.49,4.98
19.83,0,0,0,-0.02,8.51,4.97
19.845,0,0,0,0,8.48,4.99
19.86,0,0,0,-0.02,8.43,4.99
19.875,0,0,0,-0.04,8.4,5.07
19.89,0,0,0,-0.04,8.43,5.05
19.905,0,0,0,-0.05,8.48,4.97
19.92,0,0,0,-0.02,8.54,4.94
19.935,0,0,0,0.01,8.53,5.03
19.95,0,0,0,0,8.56,4.89
19.965,0,0,0,0.01,8.51,4.91
19.98,0,0,0,0.03,8.5,4.94
19.995,0,0,0,-0.01,8.5,4.94
20.01,0,0,0,0,8.47,4.94
20.025,0,0,0,-0.02,8.44,5.02
20.04,0,0,0,0,8.47,5.07
20.055,0,0,0,0,8.52,4.99
20.07,0,0,0,0,8.51,5.1
20.085,0,0,0,0.02,8.43,5.07
20.1,0,0,0,0,8.47,5.04
20.115,0,0,0,-0.02,8.46,4.98
20.13,0,0,0,-0.03,8.48,4.97
20.145,0,0,0,-0.02,8.52,4.96
20.16,0,0,0,-0.01,8.49,4.99
20.175,0,0,0,0.02,8.48,5.02
20.19,0,0,0,-0.01,8.53,4.92
20.205,0,0,0,0.02,8.47,5.03
20.22,0,0,0,-0.03,8.47,4.91
20.235,0,0,0,0,8.46,5.02
20.25,0,0,0,0,8.5,5.03
20.265,0,0,0,-0.03,8.48,4.99
20.28,0,0,0,0.01,8.49,5.01
20.295,0,0,0,0,8.5,4.98
20.31,0,0,0,-0.03,8.51,4.95
20.325,0,0,0,-0.02,8.44,5.06
20.34,0,0,0,-0.01,8.47,5.06
20.355,0,0,0,-0.04,8.48,4.93
20.37,0,0,0,-0.01,8.51,4.96
20.385,0,0,0,0.02,8.48,5.05
20.4,0,0,0,0,8.48,4.93
20.415,0,0,0,0.01,8.53,4.97
20.43,0,0,0,0,8.48,5.01
20.445,0,0,0,-0.02,8.51,4.98
20.46,0,0,0,-0.02,8.51,4.96
20.475,0,0,0,0,8.46,5.06
20.49,0,0,0,-0.04,8.5,4.95
20.505,0,0,0,-0.04,8.51,4.93
20.52,0,0,0,-0.01,8.51,4.95
20.535,0,0,0,-0.02,8.49,4.94
20.55,0,0,0,0,8.5,4.99
20.565,0,0,0,-0.01,8.47,5
20.58,0,0,0,-0.01,8.45,5.04
20.595,0,0,0,-0.01,8.5,4.97
20.61,0,0,0,0.01,8.47,5.04
20.625,0,0,0,-0.02,8.49,4.93
20.64,0,0,0,0,8.46,5.05
20.655,0,0,0,-0.03,8.48,4.95
20.67,0,0,0.01,-0.02,8.48,4.96
20.685,0,0,0,0,8.49,4.99
20.7,0,0,0,-0.01,8.51,5.02
20.715,0,0,0,-0.02,8.47,5.01
20.73,0,0,0,0,8.47,5.03
20.745,0,0,0,0.02,8.48,5.03
20.76,0,0,0,-0.01,8.5,4.95
20.775,0,0,0,0.04,8.48,5.03
20.79,0,0,0,0.03,8.48,5.05
20.805,0,0,0,-0.02,8.5,4.94
20.82,0,0,0.01,0.02,8.49,5.03
20.835,0,0,0,-0.03,8.48,4.99
20.85,0,0,0,0,8.53,4.98
20.865,0,0,0,-0.03,8.52,4.95
20.88,0,0,0,-0.05,8.47,5.03
20.895,0,0,0,-0.06,8.51,4.94
20.91,0,0,0,-0.02,8.5,4.94
20.925,0,0,0.01,0.01,8.47,4.92
20.94,0,0,0,0.02,8.48,5.05
20.955,0,0,0,0.02,8.52,5.03
20.97,0,0,0,0,8.49,4.96
20.985,0,0,0,0.02,8.5,5.01
21,0,0,0,0.02,8.5,4.96
21.015,0,0,0,-0.01,8.42,5.04
21.03,0,0,0,-0.05,8.49,4.94
21.045,0,0,0,-0.01,8.46,5.06
21.06,0,0,0,-0.03,8.49,4.92
21.075,0,0,0,-0.04,8.54,4.95
21.09,0,0,0,0,8.51,5.05
21.105,0,0,0,-0.02,8.49,4.95
21.12,0,0,0,-0.02,8.54,5
21.135,0.03,0,0,0.15,7.17,7.32
21.15,0.03,0,0,-0.08,7.89,5.83
21.165,0.01,-0.01,0,-0.19,8.32,5.58
21.18,0,-0.01,0,-0.33,8.27,5.79
21.195,0,0,0,-0.25,8.32,5.48
21.21,0,0,0,-0.25,7.98,5.84
21.225,0,0,0,0.58,8.04,6.01
21.24,0,0.02,0.01,-0.09,7.87,5.61
21.255,0.01,0.01,0.01,0.65,7.75,6.02
21.27,0.01,0.02,0.01,0.04,8.49,5.51
21.285,0,0,0.01,0.49,8.13,5.82
21.3,0,0,0,0.08,8.31,5.43
21.315,0,0,0,-0.34,8.45,5.35
21.33,0,-0.01,0,-0.17,8.42,5.32
21.345,0,-0.01,0,-0.23,8.28,5.27
21.36,0,0,0,-0.09,8.32,5.1
21.375,0,0,0,0.05,8.29,5.14
21.39,0,0,0,0.12,8.41,5.2
21.405,0,0.01,0.01,0.3,8.47,5.12
21.42,0,0.01,0.01,0.09,8.33,5.19
21.435,0,0.01,0.01,0.18,8.41,5.11
21.45,0,0,0.01,-0.08,8.38,5.18
21.465,0,0,0.01,-0.07,8.36,5.2
21.48,0,0,0,0.04,8.3,5.36
21.495,0,0,0,-0.37,8.28,5.29
21.51,0.01,-0.01,0,0.04,8.06,5.75
21.525,0,0,0,-0.81,8.32,5.01
21.54,0,0,0,0.22,8.44,5.35
21.555,0,0,0,0.13,8.34,5.42
21.57,0,0.02,0.01,0.2,8.12,5.61
21.585,0,0.01,0.01,0.35,8.15,5.62
21.6,0,0.01,0.01,0.14,8.11,5.67
21.615,0,0,0,0.1,8.23,5.63
21.63,0,0,0.01,0.01,8.19,5.66
21.645,0,0,0,-0.1,8.23,5.54
21.66,0,0,0,-0.06,8.26,5.47
21.675,0,-0.01,0,-0.14,8.19,5.5
21.69,0,0,0,-0.02,8.24,5.28
21.705,0,0,0,-0.03,8.09,5.31
21.72,0,0,0,0.04,8.16,5.34
21.735,0,0,0,0.13,8.17,5.29
21.75,0,0,0,0.03,8.43,5.22
21.765,0,0,0,-0.02,8.32,5.17
21.78,0,0,0,-0.02,8.31,5.19
21.795,0,0,0,-0.03,8.31,5.25
21.81,0,0,0,-0.1,8.19,5.4
21.825,0,0,0,-0.15,8.18,5.6
21.84,0,0,0,-0.07,8.18,5.56
21.855,0.01,0,0,-0.03,8.13,5.65
21.87,0,0,0,0,8.41,5.23
21.885,0,0,0,0.05,8.37,5.49
21.9,0,0,0,0.11,8.35,5.5
21.915,0,0,0,0.06,8.04,5.68
21.93,0,0,0,0.14,7.96,5.93
21.945,0.01,0,0,0.06,7.78,5.92
21.96,0.01,0,0,-0.05,7.8,5.98
21.975,0.01,0,0,0,8.06,5.72
21.99,0,0,0,0.04,8.11,5.67
22.005,0,0,0,0.02,8.18,5.57
22.02,0,0,0,-0.05,8.26,5.41
22.035,0,0,0,0.03,7.98,5.81
22.05,0,0,0,-0.06,8.09,5.55
22.065,0,0,0,0.06,8.06,5.51
22.08,0,0,0,0,8.4,4.92
22.095,0,-0.01,0,0.02,8.5,5.02
22.11,0,-0.01,0,0.01,8.3,5.13
22.125,0,-0.01,0,0.07,8.22,5.31
22.14,0,-0.01,0,0.03,8.28,5.21
22.155,0.01,0,0,0,8.1,5.41
22.17,0.01,0,0,0,8.11,5.51
22.185,0.01,0,0,0.06,8.45,5.29
22.2,0.01,-0.01,0,0.09,8.29,5.36
22.215,0,-0.01,0,0.08,8.28,5.29
22.23,0,-0.01,0,0.01,8.23,5.33
22.245,0,-0.01,0,0.11,8.46,5.39
22.26,0,-0.01,0,0.02,8.38,5.46
22.275,0,-0.02,0,-0.04,8.34,5.35
22.29,0,-0.02,0,0.05,8.22,5.32
22.305,0,-0.02,0,0.01,8.19,5.36
22.32,0.01,-0.02,0,0.09,8.43,5.07
22.335,0,-0.02,0,0.1,8.36,5.24
22.35,0,-0.02,-0.01,0.02,8.39,5.14
22.365,0,-0.02,0,0,8.4,5.15
22.38,0,-0.02,0,-0.03,8.42,5.23
22.395,0,-0.02,0,0.02,8.17,5.54
22.41,0,-0.02,-0.01,0.05,8.31,5.45
22.425,0,-0.02,-0.01,0,8.23,5.45
22.44,0,-0.02,-0.01,-0.01,8.47,5.26
22.455,-0.01,-0.03,-0.01,0,8.57,4.8
22.47,0,-0.03,-0.01,0.06,8.46,5.11
22.485,0,-0.02,-0.01,0.05,8.21,5.63
22.5,0,-0.02,-0.02,0.03,8.27,5.38
22.515,0,-0.02,-0.01,0.03,8.17,5.29
22.53,0,-0.02,-0.01,0.02,8.26,5.23
22.545,0,-0.02,-0.01,0.2,8.42,5.12
22.56,0,-0.02,-0.01,0.05,8.52,5.1
22.575,0,-0.02,-0.01,0.11,8.19,5.42
22.59,0,-0.02,-0.01,0.1,8.13,5.59
22.605,0.01,-0.02,-0.01,0.16,7.94,6.03
22.62,0.01,-0.02,-0.02,0.07,7.76,6.05
22.635,0.02,-0.02,-0.02,0.14,7.84,6.12
22.65,0.02,-0.03,-0.01,0.16,8.02,5.77
22.665,0.01,-0.04,-0.01,0.1,8.08,5.65
22.68,0.01,-0.03,-0.01,0.13,7.8,6.09
22.695,0.01,-0.03,-0.02,0.03,7.99,5.94
22.71,0.01,-0.03,-0.03,0.21,7.6,6.4
22.725,0.02,-0.04,-0.02,0.27,7.49,6.41
22.74,0.02,-0.05,-0.02,0.06,7.51,6.42
22.755,0.02,-0.05,-0.02,0.26,7.51,6.28
22.77,0.01,-0.04,-0.04,0.14,8.1,6.04
22.785,0.01,-0.04,-0.04,0,7.93,6.15
22.8,0,-0.04,-0.03,0.07,7.98,5.98
22.815,0,-0.05,-0.03,0.3,8.06,5.91
22.83,0,-0.05,-0.04,0.21,8.05,5.88
22.845,0,-0.05,-0.04,0.24,8.06,5.84
22.86,0,-0.05,-0.05,0.14,8.26,5.51
22.875,0,-0.06,-0.04,0.27,8.17,5.58
22.89,-0.01,-0.07,-0.04,0.32,8.47,5.19
22.905,-0.01,-0.06,-0.05,0.24,8.54,5.01
22.92,-0.02,-0.06,-0.05,0.09,8.4,4.98
22.935,-0.01,-0.07,-0.04,0.07,8.52,4.79
22.95,-0.01,-0.07,-0.03,0.21,8.66,4.82
22.965,-0.01,-0.07,-0.03,0.21,8.49,4.92
22.98,0,-0.07,-0.03,0.33,8.29,5.33
22.995,0,-0.07,-0.03,0.09,8.53,5.14
23.01,0.01,-0.07,-0.03,0.42,8.29,5.48
23.025,0,-0.07,-0.02,0.22,8.07,5.52
23.04,0,-0.07,-0.02,0.23,8.23,5.6
23.055,0,-0.07,-0.04,0,8,5.75
23.07,0,-0.07,-0.04,0,8.03,5.43
23.085,0,-0.07,-0.03,0.01,8.23,5.37
23.1,0,-0.08,-0.03,0.14,7.97,5.74
23.115,0,-0.08,-0.03,0.09,8.04,6.05
23.13,0,-0.08,-0.04,0.12,8.03,5.67
23.145,0,-0.08,-0.04,0.25,8.23,5.51
23.16,0,-0.09,-0.04,0.27,8.28,5.3
23.175,0,-0.09,-0.03,0.24,8.34,5.23
23.19,0,-0.09,-0.04,0.36,8.17,5.83
23.205,0.01,-0.09,-0.04,0.21,8.01,5.66
23.22,0.02,-0.09,-0.03,0.15,8.13,5.53
23.235,0.01,-0.09,-0.04,0.45,8.2,5.53
23.25,0.02,-0.09,-0.04,0.24,8.22,5.49
23.265,0,-0.1,-0.05,0.36,8.53,5.02
23.28,0,-0.1,-0.05,0.22,8.35,5.09
23.295,0,-0.1,-0.05,0.19,8.38,5.25
23.31,0,-0.1,-0.04,0.11,8.2,5.41
23.325,0,-0.1,-0.03,0.25,8.49,5.59
23.34,0,-0.1,-0.04,0.02,8.23,5.62
23.355,0,-0.1,-0.04,0,7.99,5.26
23.37,0,-0.1,-0.04,0.1,8.14,5.21
23.385,0.01,-0.1,-0.03,0.56,8.48,5.4
23.4,0.01,-0.1,-0.03,0.48,8.44,5.37
23.415,0.02,-0.1,-0.06,0.6,8.29,5.28
23.43,0,-0.11,-0.07,0.14,8.48,5.36
23.445,0,-0.12,-0.05,0.18,8.4,5.51
23.46,0,-0.13,-0.05,0.3,8.75,5.28
23.475,0,-0.13,-0.05,0.34,8.61,5.28
23.49,0,-0.12,-0.07,0.44,8.66,5.28
23.505,0,-0.11,-0.07,0.39,8.74,5.02
23.52,0,-0.12,-0.06,0.19,8.29,5.08
23.535,0,-0.12,-0.05,0.19,8.21,4.95
23.55,0,-0.12,-0.06,0.11,8.3,4.83
23.565,0,-0.11,-0.06,0.25,7.98,5.04
23.58,0,-0.11,-0.07,0.21,7.84,5.18
23.595,0,-0.12,-0.06,0.25,7.95,4.94
23.61,0,-0.13,-0.06,0.43,8.15,4.93
23.625,0,-0.13,-0.06,0.62,8.37,5.19
23.64,0,-0.13,-0.08,0.5,8.35,5.55
23.655,0.01,-0.13,-0.08,0.39,8.37,5.79
23.67,0.01,-0.14,-0.08,0.33,8.49,5.59
23.685,0,-0.15,-0.07,0.32,8.58,5.6
23.7,0,-0.16,-0.07,0.39,8.57,5.56
23.715,0,-0.15,-0.08,0.27,8.31,5.65
23.73,-0.01,-0.15,-0.08,0.29,8.11,5.74
23.745,-0.01,-0.15,-0.08,0.23,7.95,5.59
23.76,-0.01,-0.15,-0.07,0.3,7.67,5.49
23.775,-0.01,-0.16,-0.07,0.53,8.08,4.98
23.79,-0.01,-0.16,-0.07,0.24,8.13,4.75
23.805,0,-0.16,-0.08,0.31,8.4,4.8
23.82,0,-0.16,-0.08,0.35,8.53,4.81
23.835,0,-0.17,-0.08,0.37,8.65,4.84
23.85,0.01,-0.16,-0.08,0.25,8.49,5.35
23.865,0.01,-0.16,-0.08,0.29,8.69,5.34
23.88,0,-0.16,-0.08,0.3,8.72,5.21
23.895,0,-0.16,-0.08,0.27,8.69,5.33
23.91,-0.01,-0.16,-0.08,0.28,8.53,5.3
23.925,-0.01,-0.16,-0.07,0.29,8.14,5.53
23.94,-0.01,-0.16,-0.07,0.48,7.83,5.79
23.955,0,-0.16,-0.07,0.21,7.73,6.09
23.97,0.01,-0.15,-0.09,0.37,7.75,6
23.985,0.01,-0.15,-0.1,0.38,7.71,6.1
24,0.01,-0.16,-0.1,0.29,7.76,6
24.015,0,-0.17,-0.1,0.46,8.06,5.47
24.03,0,-0.18,-0.1,0.36,8.19,5.36
24.045,0,-0.18,-0.12,0.55,8.15,5.66
24.06,-0.01,-0.17,-0.13,0.28,8.1,5.77
24.075,-0.01,-0.18,-0.13,0.4,8.03,5.62
24.09,0,-0.19,-0.11,0.56,8.18,5.42
24.105,0,-0.19,-0.11,0.69,8.35,5.15
24.12,0,-0.19,-0.12,0.54,8.36,5.13
24.135,0,-0.2,-0.11,0.62,8.73,4.94
24.15,0,-0.19,-0.1,0.67,8.54,5.2
24.165,0,-0.19,-0.1,0.7,8.46,5.55
24.18,0,-0.19,-0.1,0.35,8.37,5.49
24.195,0.01,-0.19,-0.1,0.35,8.14,5.67
24.21,0.01,-0.18,-0.09,0.34,8.17,5.61
24.225,0,-0.2,-0.07,-0.04,8.68,5.48
24.24,0,-0.2,-0.06,-0.23,8.55,5.65
24.255,0,-0.18,-0.06,0.06,8.22,5.93
24.27,0,-0.16,-0.08,0.62,8.31,5.68
24.285,0,-0.16,-0.09,0.59,8.04,5.54
24.3,0,-0.17,-0.12,0.61,7.92,5.39
24.315,0,-0.18,-0.11,0.79,8.09,5.08
24.33,0.01,-0.19,-0.1,0.58,8.1,5.17
24.345,0,-0.2,-0.1,0.56,8.43,5.16
24.36,0,-0.19,-0.12,0.38,8.39,5.25
24.375,0,-0.19,-0.11,0.44,8.19,5.27
24.39,0,-0.19,-0.1,0.51,8.17,5.38
24.405,0,-0.18,-0.09,0.41,8.62,5.36
24.42,0,-0.16,-0.12,0.24,8.45,5.61
24.435,0,-0.17,-0.11,0.36,8.29,5.59
24.45,0,-0.17,-0.1,0.23,8.39,5.4
24.465,0,-0.18,-0.09,0.19,8.18,5.76
24.48,0,-0.18,-0.1,0.28,8.2,5.77
24.495,0,-0.18,-0.11,0.22,8.17,6
24.51,0,-0.17,-0.12,0.14,8.21,5.93
24.525,0,-0.18,-0.11,0.32,8.31,5.73
24.54,0,-0.18,-0.1,0.38,8.24,5.56
24.555,-0.01,-0.19,-0.1,0.37,8.49,5.03
24.57,-0.01,-0.18,-0.11,0.61,8.21,5.28
24.585,0,-0.17,-0.12,0.41,8.07,5.14
24.6,0,-0.17,-0.12,0.39,8.04,5.27
24.615,0,-0.18,-0.11,0.45,8.04,5.02
24.63,0.02,-0.18,-0.1,0.58,7.83,4.95
24.645,0.02,-0.18,-0.09,0.21,8.07,4.97
24.66,0.02,-0.17,-0.09,0.43,8.17,4.92
24.675,0.01,-0.17,-0.08,0.26,8.06,4.96
24.69,0,-0.16,-0.07,0.33,8.28,5
24.705,0,-0.16,-0.06,0.42,8.29,5.21
24.72,0,-0.15,-0.07,0.12,8.37,5.02
24.735,0,-0.13,-0.08,0.17,8.46,5.31
24.75,0.01,-0.13,-0.08,0.12,8.49,5.39
24.765,0.01,-0.13,-0.07,0.34,8.54,5.33
24.78,0.01,-0.13,-0.08,0.18,8.7,5.29
24.795,0.01,-0.14,-0.07,0.07,8.47,5.25
24.81,0.01,-0.13,-0.08,0.05,8.39,5.29
24.825,0.01,-0.13,-0.08,0.07,8.17,5.66
24.84,0.01,-0.13,-0.07,0.19,8.22,5.5
24.855,0,-0.12,-0.08,0.13,8.15,5.5
24.87,0,-0.12,-0.08,0.11,8.03,5.61
24.885,0,-0.11,-0.08,0.23,7.93,5.65
24.9,0,-0.11,-0.08,0.07,8.12,5.51
24.915,0,-0.11,-0.07,0.22,8.31,5.53
24.93,0,-0.11,-0.06,0.66,8.3,5.65
24.945,0,-0.12,-0.06,0.47,8.33,5.67
24.96,0.01,-0.13,-0.04,0.59,8.22,5.53
24.975,0.02,-0.13,-0.04,0.53,8.18,5.59
24.99,0.02,-0.13,-0.04,0.49,8.24,5.56
25.005,0.01,-0.13,-0.04,0.03,8.33,5.48
25.02,0.01,-0.13,-0.03,0.07,8.45,5.45
25.035,0,-0.12,-0.04,0.13,8.38,5.58
25.05,0,-0.11,-0.04,0.1,8.25,5.61
25.065,0,-0.11,-0.04,0,8.22,5.44
25.08,0,-0.11,-0.04,-0.08,7.99,5.49
25.095,0.01,-0.11,-0.05,0.14,8.11,5.51
25.11,0.01,-0.1,-0.05,0.02,8.22,5.29
25.125,0.01,-0.1,-0.05,0.02,8.37,5.15
25.14,0,-0.1,-0.05,-0.06,8.49,5.11
25.155,0,-0.11,-0.04,0.22,8.63,5
25.17,-0.02,-0.09,-0.07,0,8.74,5.16
25.185,-0.02,-0.08,-0.08,-0.17,8.78,5.28
25.2,-0.02,-0.08,-0.06,-0.15,8.62,5.21
25.215,-0.01,-0.09,-0.05,0.15,8.33,5.15
25.23,-0.01,-0.08,-0.06,0.03,8.27,5.16
25.245,0,-0.07,-0.06,0.19,8.17,4.98
25.26,0,-0.07,-0.06,0.05,8.32,4.97
25.275,0,-0.07,-0.06,-0.1,8.55,5.03
25.29,0,-0.08,-0.02,0.3,8.5,5.22
25.305,0.01,-0.07,-0.01,0.3,8.38,5.26
25.32,0.01,-0.07,-0.02,0.18,8.16,5.51
25.335,0.01,-0.05,-0.05,-0.02,8.36,5.49
25.35,0.01,-0.05,-0.05,0.06,8.32,5.48
25.365,0,-0.05,-0.04,-0.12,8.25,5.39
25.38,0,-0.06,-0.04,0.04,8.31,5.34
25.395,0,-0.05,-0.05,-0.25,8.12,5.4
25.41,0,-0.04,-0.05,0.01,8.08,5.22
25.425,0,-0.04,-0.04,0,7.89,5.21
25.44,0,-0.04,-0.03,-0.14,7.96,5.22
25.455,0.01,-0.03,-0.03,-0.05,8.03,5.38
25.47,0.01,-0.03,-0.04,0.18,8.21,5.2
25.485,0.01,-0.03,-0.03,0,8.14,5.29
25.5,0,-0.02,-0.01,0.34,8.38,5.33
25.515,0,-0.02,-0.02,0.14,8.34,5.28
25.53,0,-0.02,-0.02,0.04,8.36,5.41
25.545,0,-0.01,-0.02,-0.22,8.37,5.38
25.56,0,-0.01,-0.02,-0.03,8.43,5.33
25.575,0,-0.01,-0.01,-0.19,8.4,5.41
25.59,0,-0.02,0,0.06,8.55,5.32
25.605,0.01,-0.03,0,0.3,8.46,5.31
25.62,0.02,-0.03,0,0.19,8.57,5.2
25.635,0.02,-0.03,0,0.17,8.64,5.11
25.65,0.02,-0.04,0.01,0.38,8.82,5.22
25.665,0.01,-0.03,0.01,0.23,8.54,5.2
25.68,0.02,-0.03,0.01,0.09,8.36,5.11
25.695,0.01,-0.03,0.02,0.13,8.44,5.07
25.71,0.01,-0.03,0.03,-0.15,8.33,4.87
25.725,0.01,-0.02,0.05,0.09,8.13,5.1
25.74,0.01,-0.02,0.05,0.21,8.03,5.22
25.755,0.01,-0.02,0.04,0.21,8.12,5.08
25.77,0.01,-0.01,0.03,-0.22,8.27,5.08
25.785,0.01,0,0.01,-0.4,8.35,5.13
25.8,0.01,-0.01,0.02,-0.53,8.56,5.21
25.815,0.01,-0.02,0.04,-0.21,8.5,5.23
25.83,0.01,-0.01,0.02,0,8.8,5.66
25.845,0.01,0,0,-0.64,8.87,5.81
25.86,0.03,0,-0.01,-0.45,8.66,5.7
25.875,0.03,0.01,0,-0.67,8.35,5.59
25.89,0.02,0,0.01,-0.13,8.12,5.52
25.905,0.01,0.01,0.02,0.15,7.8,5.66
25.92,0.01,0.02,0.01,-0.06,7.62,5.6
25.935,0,0.03,0,0.07,7.48,5.56
25.95,0.01,0.02,0.02,-0.38,7.59,5.57
25.965,0.01,0.02,0.03,-0.47,7.83,5.73
25.98,0.02,0.02,0.04,-0.21,7.91,5.82
25.995,0.01,0.04,0.03,-0.3,8.19,5.99
26.01,0.01,0.06,0.01,-0.42,8.16,6.12
26.025,0.01,0.07,0,-0.6,8.11,6.22
26.04,0,0.06,0.03,-0.52,8.34,5.85
26.055,0,0.06,0.03,-0.45,8.34,5.78
26.07,0,0.07,0.02,-0.23,8.16,5.71
26.085,0,0.08,0,-0.39,7.93,5.56
26.1,0,0.08,0.01,-0.89,7.91,5.53
26.115,0.01,0.08,0.03,-0.41,7.78,5.53
26.13,0.02,0.07,0.04,-0.66,7.81,5.56
26.145,0.02,0.08,0.04,-0.2,7.76,5.47
26.16,0.02,0.09,0.04,-0.28,7.68,5.49
26.175,0.02,0.09,0.04,-0.2,7.91,5.34
26.19,0.01,0.09,0.06,-0.07,8.2,5.61
26.205,0.01,0.09,0.08,0.2,8.16,6.07
26.22,0.01,0.09,0.08,-0.22,8.33,5.83
26.235,0,0.1,0.06,-0.37,8.34,5.86
26.25,0,0.1,0.07,-0.63,8.33,5.88
26.265,0,0.09,0.09,-0.63,8.43,5.63
26.28,0,0.09,0.11,-0.38,8.39,5.43
26.295,0,0.1,0.11,-0.26,8.48,5.47
26.31,0,0.1,0.1,-0.3,8.49,5.45
26.325,-0.01,0.12,0.1,-0.5,8.12,5.38
26.34,0,0.11,0.1,-0.45,8.04,5.42
26.355,0,0.11,0.11,-0.64,8.02,5.22
26.37,0,0.11,0.13,-0.34,8.62,4.93
26.385,0,0.12,0.11,-0.33,8.68,5.2
26.4,0,0.14,0.09,-0.58,8.61,5.11
26.415,0,0.13,0.1,-0.59,8.76,5.03
26.43,0,0.12,0.11,-0.53,8.91,5.02
26.445,0,0.12,0.12,-0.21,9.25,5.29
26.46,0,0.13,0.1,-0.44,9.02,5.32
26.475,0,0.13,0.08,-0.71,8.83,5.06
26.49,-0.01,0.1,0.11,-0.42,8.3,4.73
26.505,-0.01,0.09,0.12,-0.3,8.01,4.81
26.52,0,0.1,0.11,-0.22,7.99,4.7
26.535,0,0.12,0.07,-0.35,7.83,4.59
26.55,0.01,0.14,0.05,-0.45,7.9,4.59
26.565,0.02,0.13,0.05,-0.62,8.05,4.74
26.58,0,0.13,0.07,-0.65,8.33,4.76
26.595,0,0.13,0.06,-0.34,8.52,4.92
26.61,-0.01,0.15,0.03,-0.57,8.37,5.14
26.625,-0.01,0.16,0.02,-0.95,8.52,5.07
26.64,-0.01,0.16,0.02,-0.9,8.42,5.24
26.655,0,0.15,0.04,-0.75,8.29,5.17
26.67,0,0.15,0.05,-0.32,8.38,5.17
26.685,0,0.15,0.05,-0.45,8.5,5.23
26.7,0,0.16,0.04,-0.4,8.33,5.14
26.715,0,0.16,0.05,-0.21,8.27,5.02
26.73,0,0.14,0.07,-0.37,8.46,5.15
26.745,0,0.14,0.1,-0.02,8.94,5.51
26.76,0.01,0.13,0.11,0.2,8.98,5.59
26.775,0.02,0.12,0.11,0.34,8.39,5.48
26.79,0.03,0.12,0.1,-0.26,8.26,5.27
26.805,0.02,0.12,0.09,-0.21,8.22,5.14
26.82,0.01,0.1,0.11,-0.22,7.87,5.05
26.835,0.01,0.1,0.11,-0.19,7.82,5.05
26.85,0,0.1,0.1,-0.23,7.82,5.06
26.865,0,0.09,0.1,-0.36,8.07,5.01
26.88,0,0.1,0.09,-0.91,8.46,5.26
26.895,0.01,0.11,0.07,-0.76,8.66,5.45
26.91,0.02,0.12,0.07,-0.91,8.56,5.59
26.925,0.03,0.11,0.08,-0.91,8.79,5.49
26.94,0.03,0.12,0.08,-0.68,8.68,5.55
26.955,0.02,0.12,0.07,-0.14,8.63,5.39
26.97,0.01,0.12,0.07,-0.59,8.51,5.36
26.985,0,0.1,0.1,0.04,8.24,5.16
27,0,0.09,0.1,0.1,8.12,5.22
27.015,-0.01,0.09,0.1,0.09,8.12,4.95
27.03,-0.03,0.1,0.08,-0.3,8.08,4.97
27.045,-0.04,0.09,0.1,-0.13,7.98,5.14
27.06,-0.04,0.08,0.1,0,8.41,5.2
27.075,-0.03,0.09,0.08,-0.24,8.22,5.17
27.09,-0.04,0.11,0.07,-0.27,7.67,5.05
27.105,-0.06,0.08,0.1,-0.83,8.14,5.04
27.12,-0.05,0.08,0.1,-0.18,8.38,5.21
27.135,-0.04,0.1,0.09,-0.66,8.82,5.28
27.15,-0.02,0.13,0.03,-1.14,8.41,5.26
27.165,-0.02,0.14,0.04,-0.55,7.99,5
27.18,-0.02,0.13,0.05,-1.27,8.23,5.25
27.195,-0.02,0.14,0.02,-0.93,8.98,5.32
27.21,0,0.16,0,-1.35,9.09,5.37
27.225,0,0.16,0,-1.28,8.73,5.23
27.24,0.01,0.15,0.02,-0.77,8.15,4.98
27.255,0.01,0.14,0.04,-0.55,8.09,4.8
27.27,0.02,0.15,0.03,-0.2,7.89,4.68
27.285,0.02,0.13,0.05,0.31,8.03,4.69
27.3,0.01,0.12,0.07,0.79,7.66,4.75
27.315,0,0.1,0.08,0.5,7.77,4.67
27.33,-0.02,0.09,0.07,-0.04,7.66,4.61
27.345,-0.03,0.09,0.08,0.24,8.09,4.81
27.36,-0.04,0.07,0.13,-0.12,8.78,5.17
27.375,-0.04,0.09,0.12,-0.07,8.93,5.36
27.39,-0.04,0.1,0.12,-0.4,8.89,5.37
27.405,-0.05,0.12,0.1,-0.54,9.16,5.61
27.42,-0.04,0.13,0.08,-0.77,9.32,5.65
27.435,-0.03,0.13,0.06,-1.18,9.32,5.9
27.45,-0.02,0.13,0.06,-0.86,9.17,6.11
27.465,-0.01,0.12,0.06,-1.2,9,5.82
27.48,0.01,0.11,0.07,-0.84,8.38,6.04
27.495,0.02,0.11,0.07,-0.79,8.13,5.94
27.51,0.02,0.11,0.07,-0.69,7.48,5.88
27.525,0.01,0.11,0.09,0.07,7.21,5.53
27.54,0,0.12,0.1,-0.53,7.31,5.33
27.555,-0.01,0.12,0.12,0.35,7.42,5.54
27.57,-0.01,0.11,0.15,0.31,7.49,5.76
27.585,0,0.11,0.14,0.53,7.26,5.82
27.6,0,0.12,0.11,0.41,7.19,5.72
27.615,0,0.12,0.11,-0.32,7.76,5.57
27.63,0,0.12,0.11,-0.93,8.19,5.33
27.645,0.02,0.12,0.1,-0.69,8.51,5.44
27.66,0.02,0.13,0.09,-0.94,8.68,5.23
27.675,0.01,0.13,0.07,-1.08,8.55,5.15
27.69,0,0.14,0.01,-1.07,9.12,5.25
27.705,0,0.15,0,-1,9.14,5.16
27.72,-0.01,0.15,0,-1.03,8.98,4.94
27.735,0,0.15,-0.01,-0.74,8.95,4.97
27.75,0,0.15,-0.01,-0.95,8.64,4.99
27.765,0.03,0.13,0,-0.14,8.26,4.75
27.78,0.03,0.12,0.01,-0.09,8.18,4.56
27.795,0.04,0.11,0.03,0.33,8.42,4.63
27.81,0.04,0.09,0.06,0.57,7.89,4.79
27.825,0.04,0.07,0.08,0.87,7.36,4.62
27.84,0.04,0.06,0.11,0.94,7.41,4.6
27.855,0.05,0.06,0.13,0.75,7.41,5.15
27.87,0.06,0.08,0.12,0.25,7.5,4.89
27.885,0.06,0.1,0.11,0.17,7.61,4.98
27.9,0.05,0.12,0.08,-0.55,7.93,5.07
27.915,0.04,0.12,0.07,-0.54,8.05,5.09
27.93,0.02,0.12,0.05,-0.74,8.85,5.38
27.945,0,0.12,0.03,-0.83,9.26,5.41
27.96,0,0.11,0.02,-0.5,9.42,5.8
27.975,-0.01,0.09,0.01,-0.37,9.62,5.82
27.99,-0.02,0.07,0,-0.25,9.55,5.89
28.005,-0.03,0.06,0,0.08,9.56,5.79
28.02,-0.04,0.04,0,0.34,9.43,6.02
28.035,-0.03,0.03,0.02,0.5,8.65,5.89
28.05,-0.02,0.02,0.03,0.7,8.15,5.92
28.065,0,0.02,0.03,0.55,7.53,5.38
28.08,0.01,0.02,0.03,0.48,7.32,5.26
28.095,0.02,0.02,0.06,0.45,7.42,5.27
28.11,0.02,0.01,0.09,0.55,7.32,5.49
28.125,0.01,0.03,0.06,0.35,7.53,5.75
28.14,0,0.05,0.02,-0.17,8.28,5.29
28.155,0,0.04,0.02,-0.38,8.49,5.51
28.17,-0.01,0.03,0.02,-0.5,8.55,5.45
28.185,-0.02,0.01,0.02,-0.35,8.52,5.31
28.2,-0.02,0.01,0,-0.3,8.5,5.26
28.215,-0.01,0.02,-0.06,-0.61,8.7,5.14
28.23,-0.01,0.01,-0.04,-0.6,8.82,4.88
28.245,0,0,-0.02,-0.42,8.69,4.85
28.26,0,-0.02,0,0.23,8.5,4.88
28.275,0,-0.02,0.01,0.75,8.41,4.61
28.29,0,-0.01,0,0.76,8.08,4.66
28.305,-0.02,0.01,-0.04,0.22,8,4.46
28.32,-0.03,0.02,-0.04,0.06,8.15,4.45
28.335,-0.04,0.02,-0.02,-0.07,8.19,4.67
28.35,-0.04,0.02,0,0.14,8.41,5.01
28.365,-0.03,0.02,0,-0.08,8.56,5.24
28.38,-0.02,0.03,0,-0.1,8.41,5.26
28.395,0.01,0,0.03,0.12,8.27,5.24
28.41,0.03,0,0.03,-0.06,8.35,5.19
28.425,0.04,0.01,0,-0.22,8.12,4.96
28.44,0.05,0.02,-0.01,-0.73,8.12,4.82
28.455,0.03,0.01,-0.01,-0.39,8.29,4.84
28.47,0,0,0.03,-0.07,8.42,4.88
28.485,-0.01,-0.01,0.04,0.1,8.42,4.96
28.5,-0.02,0,0.03,0.21,8.66,5.12
28.515,-0.03,0.01,0,0.08,8.86,5.39
28.53,-0.02,0.02,0,0.05,8.77,5.61
28.545,-0.01,0.01,0.02,0.07,8.91,5.86
28.56,0.04,0,0.07,0.42,8.09,7.26
28.575,0.06,0.01,0.06,0.24,7.7,7.31
28.59,0.07,0.03,0.01,-0.19,7.27,7.23
28.605,0.06,0.04,0,-0.72,7.41,6.83
28.62,0.05,0.04,0.02,-1.03,7.21,6.42
28.635,0.02,0.03,0.03,-0.34,7.55,6.77
28.65,0.01,0.03,0.03,-0.37,7.23,7.12
28.665,0,0.02,0.03,-0.11,6.92,6.98
28.68,-0.02,0.04,-0.01,-0.58,6.85,6.63
28.695,-0.02,0.03,-0.01,-1.05,6.84,6.67
28.71,0,0.02,0,0.04,6.31,7.42
28.725,0.01,0.02,0.03,-0.12,6.87,7.09
28.74,0.02,0.02,0.04,-0.21,7.35,7.4
28.755,0.01,0.02,0.03,0.18,7.49,6.59
28.77,0,0.06,0,-0.14,7.36,6.71
28.785,-0.02,0.07,-0.03,0.11,6.77,6.47
28.8,0,0.1,-0.04,-1.31,6.41,6.76
28.815,0,0.08,0,-0.52,6.28,6.53
28.83,0.01,0.06,0.01,0.1,5.81,7.27
28.845,0,0.03,0.05,0,7.77,6.08
28.86,-0.01,0.03,0.05,0.67,8.99,6.25
28.875,-0.02,0.04,0.03,-0.2,9.22,5.89
28.89,-0.06,0.02,0.05,0.19,9.18,5.39
28.905,-0.06,0.02,0.05,-0.1,9.01,5.21
28.92,-0.03,0.02,0.06,0.29,8.63,5.11
28.935,-0.02,0.04,0.04,-0.07,8.51,4.94
28.95,0,0.05,0.02,-0.46,8.46,4.8
28.965,0,0.06,0.02,-0.65,8.8,4.65
28.98,0,0.05,0.05,-0.74,9.17,4.45
28.995,0,0.03,0.08,0.13,9.28,5.01
29.01,-0.01,0.04,0.07,0.1,9,4.88
29.025,-0.01,0.06,0.03,-0.2,8.69,4.82
29.04,-0.01,0.07,0.01,-0.32,8.46,4.69
29.055,0,0.06,0.01,-0.73,8.22,4.46
29.07,0,0.05,0.03,-0.56,8.52,4.51
29.085,0.01,0.02,0.07,0,8.99,4.82
29.1,0.02,0.03,0.05,0,9.04,5.02
29.115,0,0.07,-0.01,-0.22,8.72,4.85
29.13,-0.01,0.07,-0.02,-0.7,8.84,4.86
29.145,-0.02,0.05,0,-0.46,8.43,4.88
29.16,-0.02,0.04,0.01,-0.22,8.26,4.78
29.175,-0.01,0.04,0.01,0.24,8.08,4.77
29.19,0,0.05,0,-0.14,7.72,4.74
29.205,0,0.06,-0.03,-0.54,7.46,4.51
29.22,0,0.05,-0.02,-0.21,7.72,4.55
29.235,0.01,0.03,0.01,0.35,7.65,4.74
29.25,0.03,0.01,0.02,0.72,8.67,5.18
29.265,0.04,0.02,0,0.52,8.87,5.16
29.28,0.04,0.02,0,0.46,9.04,5.41
29.295,0.02,0.01,0,0.41,8.98,5.34
29.31,0.02,0,0.02,0.34,9.21,5.36
29.325,0,-0.02,0.05,0.9,9.38,5.46
29.34,0,-0.01,0.03,0.73,9.02,5.37
29.355,0,-0.01,0.02,0.34,8.72,5.2
29.37,0,-0.01,0.01,0.4,8.49,5.27
29.385,0.02,-0.02,0,-0.18,8.52,4.93
29.4,0.03,-0.02,0,-0.23,8.34,5.21
29.415,0.04,-0.03,-0.01,-0.44,8.41,5.19
29.43,0.04,-0.04,0.01,0.07,8.19,5.35
29.445,0.05,-0.06,0.04,0.11,8.1,5.28
29.46,0.05,-0.05,0.03,0.73,8.39,5.41
29.475,0.05,-0.02,0,0.08,8.55,5.46
29.49,0.05,-0.01,-0.01,0.04,8.05,5.7
29.505,0,0,-0.02,-0.44,8.09,5.51
29.52,-0.02,0,-0.02,0,7.93,5.56
29.535,-0.02,0,0,-0.2,7.87,5.62
29.55,0,-0.02,0,0.38,7.12,5.62
29.565,0,-0.01,-0.02,0.15,6.9,5.41
29.58,0,-0.02,-0.02,0.48,6.77,5.27
29.595,0,-0.04,-0.01,0.2,8.24,5.94
29.61,0.01,-0.02,-0.05,0.35,7.83,6
29.625,0.04,0.01,-0.07,-0.22,8,5.82
29.64,0.05,0,-0.04,0.19,8.18,6.14
29.655,0.06,-0.03,0.04,0.8,8.5,6.12
29.67,0.04,-0.02,0.03,0.82,8.93,6.55
29.685,0.03,0,0,0.8,8.98,6.73
29.7,0.02,0,0,0.15,8.42,6.66
29.715,0.01,-0.04,0.08,0.32,8.17,6.61
29.73,0.01,-0.07,0.13,0.57,8.05,6.7
29.745,0.02,-0.05,0.09,0.07,7.39,6.72
29.76,0.02,0,0,-0.07,7.24,6.74
29.775,0.02,0,-0.01,-0.87,7.09,6.63
29.79,0.02,-0.01,0.02,-0.77,6.88,6.56
29.805,0.02,-0.02,0.04,-0.26,7.63,6.86
29.82,0.01,-0.02,0.04,-0.38,7.8,7.31
29.835,-0.02,-0.01,0,-0.39,7.89,7.03
29.85,-0.04,0,-0.01,-0.16,7.87,6.85
29.865,-0.06,0.01,-0.02,-0.55,7.34,7.05
29.88,-0.05,0.03,-0.06,-0.63,6.55,6.4
29.895,-0.04,0.02,-0.05,-0.67,6.61,6.1
29.91,-0.03,-0.02,0.01,-0.04,7.09,5.76
29.925,-0.03,0,0.01,0.16,6.93,5.35
29.94,-0.03,0,-0.01,0.12,6.72,5.32
29.955,-0.01,0.01,0,0.64,7.73,5.32
29.97,0,0.03,0,-0.09,8.32,5.56
29.985,0,0.06,-0.05,-0.21,8.54,5.78
30,-0.01,0.05,-0.01,-0.55,8.47,5.49
30.015,-0.01,0.02,0.04,0.07,9.06,5.87
30.03,-0.01,0,0.08,0.37,9.29,5.98
30.045,0,0,0.07,0.26,9.24,6.09
30.06,0,0.01,0.06,0.36,9.25,5.92
30.075,0,0.01,0.07,0.15,9.02,5.87
30.09,0,0,0.1,-0.06,8.67,5.94
30.105,0,0.01,0.1,0.08,8.37,5.42
30.12,0,0.04,0.05,-0.7,8.56,5.72
30.135,0,0.06,0.03,-0.62,8.17,5.53
30.15,0,0.06,0.03,-1.04,7.89,5.47
30.165,-0.01,0.06,0.03,-0.87,7.52,5.32
30.18,-0.01,0.06,0.02,-1.12,7.25,5
30.195,-0.01,0.06,0.02,-1.14,7.13,4.84
30.21,-0.01,0.09,-0.01,-1.08,7.13,4.64
30.225,-0.02,0.08,-0.01,-0.35,7.07,4.5
30.24,-0.02,0.08,-0.01,-0.55,6.98,4.61
30.255,-0.01,0.07,0,-0.07,7.87,4.89
30.27,0,0.08,-0.01,-0.21,8.29,4.87
30.285,0.02,0.09,-0.04,-0.41,8.87,5.49
30.3,0.03,0.1,-0.05,-0.16,8.96,5.63
30.315,0.03,0.07,-0.03,-0.6,9,5.39
30.33,0.03,0.04,0.01,0.09,9.46,5.55
30.345,0.04,0.03,0.03,0.33,9.47,5.67
30.36,0.05,0.03,0.03,0.14,9.46,5.66
30.375,0.04,0.03,0.03,0.13,9.06,5.28
30.39,0.03,0.02,0.04,0.5,8.78,5.29
30.405,0.03,0.02,0.06,0.3,9.03,5.21
30.42,-0.01,0.02,0.07,0.34,9.06,5.35
30.435,-0.02,0.03,0.06,0.1,8.86,5.32
30.45,-0.03,0.04,0.04,-0.41,8.37,5.02
30.465,-0.02,0.04,0.03,-0.25,8.13,5.04
30.48,-0.02,0.04,0.03,-0.73,7.78,4.79
30.495,-0.01,0.04,0.03,-0.51,7.53,4.53
30.51,-0.01,0.03,0.03,-0.62,7.43,4.42
30.525,0,0.03,0.03,-0.53,7.33,4.56
30.54,0,0.05,-0.01,-0.51,7.89,4.47
30.555,0.02,0.05,0,-0.37,8.11,4.95
30.57,0.03,0.03,0.01,-0.31,8.06,4.82
30.585,0.05,0.04,-0.01,-0.02,8.29,4.78
30.6,0.05,0.06,-0.04,-0.38,8.46,4.9
30.615,0.02,0.08,-0.06,-0.43,8.89,4.97
30.63,0.01,0.07,-0.04,-0.42,8.87,5.1
30.645,-0.01,0.03,0.01,0.18,8.84,5.3
30.66,-0.01,0.02,0.03,0.3,9.28,5.44
30.675,-0.01,0.03,0.03,0.48,9.37,5.59
30.69,0,0.03,0.03,0.52,9.45,5.64
30.705,0,0.02,0.06,0.53,9.62,5.82
30.72,0.01,0.02,0.07,0.07,9.85,5.78
30.735,0.01,0.02,0.07,0.42,9.76,5.81
30.75,0.01,0.02,0.06,-0.16,8.45,5.13
30.765,0,0.02,0.05,-0.25,7.98,4.83
30.78,-0.01,0.02,0.04,-0.36,7.45,4.42
30.795,-0.01,0.02,0.04,-0.72,7.28,4.51
30.81,-0.01,0.01,0.05,-0.53,7.35,4.42
30.825,-0.02,0.03,0.03,-0.53,6.88,4.11
30.84,-0.02,0.03,0.02,-0.27,7.05,4.36
30.855,-0.02,0.04,0.02,-0.29,7.56,4.64
30.87,-0.02,0.04,0.01,-0.09,8.01,4.82
30.885,-0.02,0.05,0,-0.24,8.44,5.05
30.9,-0.03,0.06,-0.01,-0.24,8.94,5.24
30.915,-0.02,0.06,-0.01,-0.5,8.94,5.46
30.93,-0.01,0.06,0,-0.26,8.84,5.49
30.945,0.01,0.05,0,-0.24,8.7,5.37
30.96,0.03,0.06,0,-0.12,8.24,5.15
30.975,0.06,0.05,0,-0.39,8.41,4.7
30.99,0.06,0.03,0.02,-0.15,9.13,4.95
31.005,0.05,0.01,0.05,0.18,9.25,5.08
31.02,0.04,0,0.06,0.5,9.45,5.11
31.035,-0.01,0.01,0.06,0.49,10.05,5.44
31.05,-0.03,0.02,0.05,0.32,9.88,5.54
31.065,-0.05,0.02,0.05,0.08,9.01,5.28
31.08,-0.05,0.01,0.07,-0.08,8.47,5.08
31.095,-0.04,0,0.07,0.14,8.09,4.98
31.11,-0.03,0.01,0.05,-0.02,7.64,4.55
31.125,-0.02,0.02,0.03,-0.41,7.71,4.39
31.14,0,0.03,0.02,-0.34,7.65,4.65
31.155,0.01,0.03,0.02,-0.6,7.38,4.63
31.17,0.02,0.02,0.03,-0.27,7.42,4.95
31.185,0.04,0.04,0.01,-0.37,7.26,4.99
31.2,0.04,0.05,0,-0.33,7.53,4.79
31.215,0.05,0.06,0,-0.32,7.91,4.9
31.23,0.06,0.06,0,-0.54,8.25,5.11
31.245,0.05,0.05,0.01,-0.43,8.23,5.16
31.26,0.03,0.04,0.01,0,8.67,5.05
31.275,0,0.05,0.01,-0.22,8.95,5.16
31.29,-0.02,0.04,0.02,-0.52,9.83,5.43
31.305,-0.01,0.04,0.02,0.06,9.94,5.75
31.32,-0.02,0.03,0.05,0.03,10.04,5.61
31.335,-0.02,0.02,0.07,0.29,9.86,5.73
31.35,-0.02,0.01,0.08,0.49,9.24,5.45
31.365,-0.02,0,0.07,0.5,8.53,4.81
31.38,-0.02,0.01,0.05,0.17,8.03,4.43
31.395,-0.01,0.01,0.05,-0.12,8.1,4.49
31.41,0,0.01,0.05,-0.49,7.79,4.51
31.425,0,0.01,0.06,-0.68,7.56,4.39
31.44,-0.01,0.02,0.05,-0.41,7.88,4.32
31.455,0,0.04,0.02,-0.25,8.77,4.71
31.47,0,0.05,0.01,-0.58,9.07,5.1
31.485,0.01,0.06,0,-0.46,9.1,5
31.5,0.01,0.05,0,-0.6,8.94,5.03
31.515,0.02,0.04,0.01,-0.38,8.84,5.03
31.53,0.03,0.07,-0.02,-0.88,8.81,4.74
31.545,0.04,0.08,-0.03,-0.49,8.62,5
31.56,0.04,0.07,0,-0.89,8.46,4.65
31.575,0.03,0.05,0.04,0.12,7.9,4.54
31.59,0.03,0.06,0.03,-0.31,8.25,4.52
31.605,0.03,0.09,0,-0.6,8.88,5.05
31.62,0.02,0.08,0.02,-0.17,9.16,5.06
31.635,0.02,0.06,0.06,-0.55,9.25,5.22
31.65,0.01,0.04,0.08,-0.03,8.4,5.1
31.665,0,0.06,0.06,-0.17,8.47,4.89
31.68,0,0.06,0.06,0.15,8.5,5.03
31.695,0.02,0.07,0.08,-0.42,8.41,5.03
31.71,0.02,0.07,0.1,0.1,8.29,4.93
31.725,0.03,0.07,0.11,-0.49,8.39,4.94
31.74,0.02,0.1,0.05,-0.88,8.56,5.24
31.755,0.02,0.1,0.07,-0.61,8.3,5.16
31.77,0.01,0.09,0.08,-0.56,8.37,4.86
31.785,0.01,0.08,0.07,-0.74,8.66,5.21
31.8,0.01,0.09,0.06,-0.53,8.81,5.38
31.815,0,0.1,0.03,-0.55,8.38,5.15
31.83,0,0.09,0.02,-0.98,8.45,4.88
31.845,0,0.1,0.01,-0.54,8.38,4.96
31.86,0.01,0.1,0.01,-0.41,8.37,5.03
31.875,0.01,0.1,0,-0.95,8.18,4.81
31.89,0.01,0.09,0.01,-0.49,8.32,4.95
31.905,0,0.07,0.04,-0.07,8.72,5.15
31.92,-0.01,0.07,0.05,-0.17,8.78,5.04
31.935,-0.02,0.07,0.07,-0.1,8.77,5.14
31.95,-0.01,0.08,0.06,-0.29,8.42,5.11
31.965,-0.01,0.09,0.05,-0.31,8.33,4.87
31.98,0,0.1,0.05,-0.99,8,4.89
31.995,0.01,0.11,0.06,-0.51,7.85,4.57
32.01,0.02,0.11,0.07,-0.82,8.35,4.82
32.025,0.03,0.11,0.1,-0.62,8.96,5.28
32.04,0.03,0.11,0.11,-0.89,8.91,5.14
32.055,0.03,0.12,0.11,-1.28,8.86,5.04
32.07,0,0.16,0.08,-1.39,8.79,5.24
32.085,0,0.15,0.1,-1.58,8.63,5.13
32.1,0.01,0.15,0.12,-1.1,8.47,5.02
32.115,0.02,0.15,0.13,-1.08,8.23,4.94
32.13,0.02,0.16,0.13,-0.93,8.25,4.88
32.145,0.03,0.18,0.11,-1.25,8.05,4.64
32.16,0.03,0.19,0.1,-1.78,8.23,4.87
32.175,0.02,0.23,0.08,-1.63,8.11,4.9
32.19,0,0.23,0.1,-1.96,8.54,5.11
32.205,-0.01,0.22,0.14,-1.71,8.78,5.14
32.22,-0.01,0.2,0.18,-1.1,8.71,5.38
32.235,-0.02,0.19,0.19,-1.19,8.17,4.94
32.25,-0.02,0.21,0.17,-0.68,7.96,5.04
32.265,-0.02,0.24,0.13,-1.36,7.62,4.76
32.28,-0.02,0.23,0.15,-1.7,7.69,4.62
32.295,-0.01,0.23,0.16,-1.12,8.1,4.96
32.31,0,0.24,0.16,-2.1,8.45,5.01
32.325,0,0.25,0.13,-1.92,8.76,5.2
32.34,0,0.27,0.12,-2.47,9.08,5.13
32.355,0,0.26,0.15,-1.99,9.24,5.3
32.37,-0.01,0.24,0.19,-1.31,9.13,5.26
32.385,-0.02,0.24,0.21,-1.16,9.04,5.59
32.4,-0.02,0.29,0.13,-1.65,8.47,5.3
32.415,-0.01,0.28,0.15,-1.8,8.33,5.13
32.43,0,0.25,0.22,-1.05,8,5.09
32.445,0,0.25,0.22,-1.44,8.28,4.88
32.46,0,0.27,0.19,-1.4,8.35,4.96
32.475,-0.02,0.31,0.12,-2.27,8.22,4.97
32.49,-0.03,0.31,0.11,-2.3,8.06,4.94
32.505,-0.03,0.28,0.16,-2.13,8.04,5.02
32.52,-0.02,0.25,0.22,-1.74,8.09,5.09
32.535,-0.01,0.24,0.23,-1.59,8.01,5.02
32.55,0,0.25,0.23,-1.43,8.23,5.05
32.565,0,0.27,0.23,-1.52,7.96,5.02
32.58,0,0.3,0.2,-2.28,8.04,4.78
32.595,0.02,0.34,0.18,-2.57,7.96,4.85
32.61,0.03,0.36,0.21,-2.64,8.69,5.08
32.625,0.03,0.36,0.24,-2.7,8.99,5.24
32.64,0.01,0.35,0.25,-2.51,9.55,5.28
32.655,0.01,0.35,0.25,-2.44,9.35,5.53
32.67,0,0.36,0.24,-2.43,8.95,5.29
32.685,-0.01,0.38,0.22,-2.63,8.24,4.58
32.7,-0.01,0.39,0.22,-2.9,8.16,4.54
32.715,-0.02,0.4,0.22,-2.69,8.16,4.5
32.73,-0.01,0.41,0.24,-2.8,8.14,4.52
32.745,-0.01,0.42,0.24,-3.02,8.24,4.51
32.76,-0.01,0.43,0.24,-2.75,8.45,4.61
32.775,-0.01,0.43,0.26,-3.06,8.42,4.47
32.79,-0.01,0.44,0.27,-2.93,8.64,4.49
32.805,0,0.45,0.28,-2.54,8.98,4.76
32.82,0,0.45,0.28,-2.82,8.97,4.83
32.835,0,0.45,0.3,-2.54,8.9,4.94
32.85,0.02,0.44,0.31,-2.69,8.95,4.96
32.865,0.03,0.45,0.3,-2.54,9.04,4.91
32.88,0.04,0.47,0.27,-2.93,8.96,4.89
32.895,0.03,0.5,0.22,-3.24,9.05,4.89
32.91,0.02,0.5,0.22,-2.65,8.87,5.05
32.925,0.02,0.42,0.29,-2.39,8.88,4.95
32.94,0.02,0.41,0.29,-2.58,8.41,4.95
32.955,0.01,0.42,0.28,-2.87,8.19,4.65
32.97,0,0.43,0.28,-2.93,8.47,4.7
32.985,-0.01,0.43,0.31,-2.38,8.56,4.58
33,-0.02,0.44,0.32,-2.93,8.7,4.87
33.015,-0.05,0.48,0.33,-3.53,8.46,4.65
33.03,-0.05,0.5,0.33,-3.5,8.12,4.48
33.045,-0.04,0.54,0.33,-3.59,8.17,4.47
33.06,-0.01,0.54,0.35,-3.44,7.7,4.33
33.075,0.01,0.56,0.34,-3.48,8.11,4.23
33.09,0.02,0.56,0.33,-3.62,8.26,4.45
33.105,0.03,0.56,0.31,-2.9,8.29,4.56
33.12,0.02,0.54,0.32,-2.89,8.53,4.48
33.135,0.02,0.51,0.34,-3.25,9.23,4.56
33.15,0.01,0.52,0.34,-3.43,9.6,4.82
33.165,0,0.52,0.33,-3.37,10.01,5.18
33.18,-0.01,0.55,0.3,-3.79,9.33,4.88
33.195,-0.02,0.56,0.31,-3.53,8.78,4.92
33.21,-0.03,0.57,0.31,-3.26,8.86,4.79
33.225,-0.02,0.57,0.32,-3.4,8.71,4.76
33.24,0,0.58,0.33,-2.88,8.49,4.93
33.255,0,0.59,0.32,-2.91,8.17,4.91
33.27,-0.01,0.57,0.33,-3.35,8.18,4.76
33.285,-0.02,0.55,0.37,-4.46,8.58,4.92
33.3,-0.03,0.55,0.41,-3.73,8.48,4.91
33.315,-0.03,0.57,0.41,-4.54,8.39,5
33.33,-0.03,0.59,0.4,-4.03,8.33,4.63
33.345,-0.01,0.64,0.39,-3.92,8.34,4.82
33.36,0,0.64,0.4,-3.95,8.33,4.65
33.375,0.02,0.66,0.4,-3.94,7.78,4.37
33.39,0.02,0.69,0.35,-3.64,7.59,4.31
33.405,0.02,0.71,0.34,-4.46,8.1,4.25
33.42,0.03,0.7,0.35,-4.25,8.81,4.38
33.435,0.05,0.65,0.42,-3.18,9.67,5.56
33.45,0.05,0.62,0.44,-3.47,9.42,5.32
33.465,0.03,0.61,0.4,-3,9.54,5.32
33.48,0.02,0.63,0.32,-3.87,9.66,5.47
33.495,0.03,0.64,0.32,-4.14,9.58,5.07
33.51,0.04,0.62,0.38,-4.46,8.92,4.69
33.525,0.04,0.63,0.4,-5.24,9.34,4.44
33.54,0.04,0.65,0.39,-4.05,8.97,4.56
33.555,0.02,0.73,0.31,-4.46,8.14,4.49
33.57,0.01,0.73,0.31,-3.43,7.62,4.22
33.585,0,0.72,0.31,-3.56,7.64,4.41
33.6,-0.04,0.61,0.45,-4.09,8.27,3.98
33.615,-0.04,0.61,0.46,-4.82,8.43,4.46
33.63,-0.05,0.67,0.39,-4.97,8.35,4.02
33.645,-0.05,0.71,0.36,-3.96,8.21,4.53
33.66,-0.04,0.72,0.36,-2.58,7.77,4.91
33.675,-0.04,0.62,0.44,-3.79,9.85,4.55
33.69,0,0.63,0.42,-5.68,9.46,4.59
33.705,0.06,0.73,0.31,-4.71,8.86,4.69
33.72,0.1,0.75,0.24,-4.03,9.05,5
33.735,0.1,0.68,0.33,-3.61,9.07,4.7
33.75,0.08,0.61,0.43,-2.29,9.03,5.23
33.765,0.02,0.55,0.52,-2.96,8.92,4.68
33.78,0,0.59,0.47,-3.7,9.18,4.44
33.795,-0.03,0.73,0.3,-4.9,9.6,5.24
33.81,-0.06,0.71,0.34,-3.33,9.44,5.39
33.825,-0.06,0.69,0.38,-2.62,8.87,5.79
33.84,-0.09,0.64,0.43,-4.13,8.47,5.46
33.855,-0.09,0.64,0.44,-2.47,8.28,5.21
33.87,-0.09,0.65,0.44,-3.9,7.94,4.54
33.885,-0.05,0.6,0.49,-3.55,7.12,4.95
33.9,-0.03,0.6,0.49,-4.93,7.3,4.31
33.915,0,0.58,0.5,-4.02,7.07,4.17
33.93,0.08,0.64,0.43,-3.32,6.65,4.21
33.945,0.1,0.64,0.39,-3.27,8.05,4.57
33.96,0.06,0.75,0.2,-4.46,9.61,5.43
33.975,0.02,0.73,0.17,-4.69,9.23,6.04
33.99,-0.01,0.67,0.24,-4.91,9.01,5.93
34.005,-0.01,0.53,0.46,-4.51,8.53,4.94
34.02,-0.02,0.5,0.49,-4.07,8.78,5.42
34.035,-0.02,0.62,0.35,-3.95,9.06,5.51
34.05,-0.01,0.68,0.27,-3.82,8.7,5.28
34.065,0,0.67,0.29,-3.54,8.33,5.34
34.08,0,0.65,0.32,-2.7,7.85,5.73
34.095,0,0.59,0.39,-2.14,8.22,5.54
34.11,0,0.59,0.38,-2.94,7.26,5.07
34.125,-0.03,0.57,0.36,-3.21,6.99,4.7
34.14,-0.04,0.59,0.34,-3.94,7.34,4.44
34.155,-0.03,0.6,0.32,-4.1,7.07,4.86
34.17,-0.01,0.59,0.38,-4.04,7.24,4.82
34.185,-0.01,0.59,0.41,-4.28,8.35,4.45
34.2,-0.01,0.6,0.43,-4.55,9.15,5.25
34.215,-0.03,0.63,0.47,-3.89,9.26,5
34.23,-0.05,0.64,0.46,-4.21,8.8,5.33
34.245,-0.07,0.71,0.41,-4.07,9.03,5.42
34.26,-0.06,0.71,0.42,-4.15,8.8,5.6
34.275,-0.04,0.69,0.45,-4.42,8.71,5.64
34.29,-0.01,0.68,0.45,-3.74,8.84,5.1
34.305,0,0.68,0.41,-3.79,8.39,5.65
34.32,-0.01,0.68,0.37,-4.08,8.39,4.78
34.335,-0.05,0.66,0.33,-2.21,7.76,5.45
34.35,-0.06,0.63,0.34,-4.19,7.72,4.64
34.365,-0.07,0.52,0.45,-3.45,7.78,5.34
34.38,-0.05,0.5,0.49,-4.76,7.48,4.72
34.395,-0.04,0.53,0.46,-3.76,8.09,5.11
34.41,-0.02,0.6,0.38,-4.24,8.24,4.88
34.425,0,0.7,0.28,-4.15,8.37,4.78
34.44,0,0.71,0.26,-3.81,7.81,5.42
34.455,0.03,0.63,0.28,-3.07,7.9,5.78
34.47,0.04,0.59,0.31,-2.58,7.49,5.29
34.485,0.04,0.53,0.35,-3.75,7.79,4.87
34.5,0.05,0.5,0.34,-2.78,7.98,5.48
34.515,0.02,0.5,0.31,-3.75,8.57,4.79
34.53,0,0.51,0.29,-3.08,8.32,5.6
34.545,-0.02,0.58,0.2,-3.44,7.56,5.19
34.56,-0.04,0.56,0.22,-3.1,7.43,5.03
34.575,-0.05,0.49,0.32,-2.98,7.43,5.08
34.59,-0.04,0.48,0.38,-3.59,8.36,5.11
34.605,-0.03,0.52,0.34,-3.16,7.78,5.27
34.62,0,0.57,0.29,-3.73,8.4,5.38
34.635,0.03,0.58,0.32,-3.4,8.8,5.71
34.65,0.06,0.55,0.37,-2.79,9.4,5.48
34.665,0.08,0.51,0.38,-2.84,10.07,6.23
34.68,0.04,0.57,0.25,-2.57,9.65,6.13
34.695,0,0.56,0.2,-2.69,9.46,5.81
34.71,-0.03,0.51,0.2,-3.54,8.92,5.89
34.725,-0.03,0.48,0.22,-3.14,8.4,5.73
34.74,-0.04,0.44,0.27,-3.03,8.19,5.65
34.755,-0.03,0.38,0.32,-2.44,7.47,5.17
34.77,-0.03,0.38,0.32,-3,7.43,5.08
34.785,-0.03,0.4,0.29,-3.55,7.46,5.08
34.8,-0.02,0.48,0.2,-3.26,7.09,5.02
34.815,-0.02,0.47,0.22,-2.52,6.71,5.15
34.83,-0.01,0.43,0.3,-2.07,6.52,4.54
34.845,0,0.43,0.31,-2.66,6.94,5.1
34.86,0,0.44,0.29,-3.26,7.08,4.45
34.875,-0.03,0.5,0.19,-3.34,7.28,5.42
34.89,-0.03,0.49,0.21,-2.64,7.06,5.04
34.905,-0.03,0.41,0.28,-2.44,7.26,4.84
34.92,-0.02,0.43,0.13,-1.51,10.96,5.6
34.935,0.03,0.48,0.08,-2.34,12.73,7.98
34.95,0.14,0.4,0.21,-3.16,12.2,7.51
34.965,0.15,0.35,0.25,-2.52,10.44,6.26
34.98,0.14,0.35,0.22,-1.61,10.02,6.28
34.995,0.1,0.37,0.16,-1.45,8.62,6.08
35.01,0.07,0.33,0.16,-1.51,8.47,5.57
35.025,0.05,0.31,0.18,-0.84,8.02,5.73
35.04,0,0.25,0.2,-0.54,6.25,5.58
35.055,-0.03,0.24,0.2,-0.85,5.59,5.21
35.07,-0.05,0.22,0.2,-1.21,5.39,4.71
35.085,-0.09,0.22,0.19,-1.34,5.03,4.54
35.1,-0.09,0.23,0.17,-1.49,5.18,4.62
35.115,-0.05,0.25,0.15,-1.71,5.45,4.4
35.13,-0.02,0.26,0.15,-1.82,5.78,4.01
35.145,0.01,0.26,0.14,-2.27,6.59,3.98
35.16,0.08,0.24,0.16,-1.08,8.71,4.2
35.175,0.09,0.21,0.18,-0.34,10.13,4.62
35.19,0.1,0.28,0.07,-2.27,11.34,5.69
35.205,0.05,0.39,-0.14,-5.26,13.09,6.61
35.22,0.01,0.3,-0.03,-2.99,13.18,6.96
35.235,-0.07,0.11,0.29,-0.85,12.88,7.01
35.25,-0.13,0.15,0.15,-0.65,11.72,6.58
35.265,-0.13,0.22,0.02,-0.97,10.55,6.24
35.28,-0.13,0.23,0.03,-1.11,8.71,5.46
35.295,-0.11,0.18,0.14,-0.3,7.53,5.26
35.31,-0.08,0.14,0.22,-0.34,6.64,4.58
35.325,-0.01,0.16,0.2,-0.55,5.09,4.77
35.34,0.05,0.21,0.18,-1.3,4.33,4.37
35.355,0.07,0.21,0.18,-1.62,3.12,4.51
35.37,0.11,0.22,0.15,-2.35,4.27,4.26
35.385,0.12,0.23,0.13,-2.16,4.63,4.36
35.4,0.1,0.23,0.12,-1.22,5.32,3.82
35.415,0.07,0.2,0.12,-2.13,8.79,4.79
35.43,0.06,0.23,0.08,-2.21,9.33,4.11
35.445,0.05,0.26,0.05,-1.96,10,4.88
35.46,0.03,0.23,0.07,-1.86,11.03,6.36
35.475,0.01,0.2,0.11,-0.94,10.97,6.29
35.49,-0.04,0.14,0.15,-0.09,11.21,6.34
35.505,-0.05,0.15,0.11,-0.79,11.49,6.06
35.52,-0.06,0.18,0.05,-0.64,11.52,6.67
35.535,-0.07,0.19,0.04,-1.61,10.4,5.8
35.55,-0.06,0.17,0.07,-1.38,9.67,5.2
35.565,-0.06,0.14,0.13,-0.49,8.42,4.62
35.58,-0.07,0.16,0.11,-0.68,7.4,4.06
35.595,-0.07,0.18,0.09,-1.34,6.73,3.93
35.61,-0.06,0.18,0.09,-1.51,6.81,3.53
35.625,0.01,0.18,0.13,-1.2,5.96,4.1
35.64,0.04,0.17,0.14,-0.71,5.39,4.57
35.655,0.11,0.14,0.17,-0.9,5.19,4.66
35.67,0.16,0.22,0.03,-2.28,6.49,6.27
35.685,0.17,0.24,-0.04,-3.14,7.01,6.29
35.7,0.11,0.18,-0.01,-2.34,8.73,5.28
35.715,0.05,0.13,0.04,-1.49,9.92,5.43
35.73,0,0.09,0.1,-1.08,10.96,5.57
35.745,-0.04,0.08,0.11,-0.27,11.77,5.93
35.76,-0.05,0.1,0.06,-0.04,11.38,6.32
35.775,-0.05,0.13,0.03,-0.72,10.49,5.74
35.79,-0.03,0.12,0.11,-0.27,9.54,5.71
35.805,-0.02,0.11,0.13,-0.45,9.16,5.35
35.82,0,0.13,0.11,-0.77,8.17,4.68
35.835,0.01,0.15,0.09,-0.99,7.47,4.68
35.85,0.03,0.15,0.1,-1.02,7.27,4.23
35.865,0.06,0.1,0.15,-0.25,6.6,4.68
35.88,0.07,0.08,0.17,-0.68,6.37,5.45
35.895,0.08,0.09,0.13,-1.17,5.75,5.46
35.91,0.06,0.11,0.07,-1.43,5.54,5.96
35.925,0.06,0.11,0.04,-1.88,6.35,5.8
35.94,0.03,0.17,-0.04,-2.58,6.91,5.74
35.955,0,0.19,-0.08,-2.59,7.99,5.97
35.97,-0.01,0.19,-0.05,-1.35,9.03,6.44
35.985,0,0.1,0.07,0.35,10.94,5.81
36,0,0.11,0.07,0.09,10.95,5.92
36.015,-0.02,0.1,0.06,0.47,10.77,5.71
36.03,-0.04,0.11,0.04,-0.33,9.94,5.61
36.045,-0.05,0.11,0.06,-0.36,9.67,5.35
36.06,-0.06,0.11,0.08,-0.48,9.19,5.42
36.075,-0.05,0.1,0.11,-0.9,8.24,4.64
36.09,-0.05,0.08,0.14,-1.29,7.97,4.3
36.105,-0.04,0.08,0.16,-0.1,7.63,4.54
36.12,-0.02,0.1,0.14,-0.88,6.51,4.22
36.135,-0.02,0.11,0.12,-1.78,6.04,4.41
36.15,0.01,0.13,0.1,-1.21,5.64,4.52
36.165,0.03,0.13,0.1,-1.49,5.7,5.12
36.18,0.04,0.14,0.09,-0.89,6.34,5.38
36.195,0.07,0.17,0,-2.62,8.05,5.58
36.21,0.1,0.16,-0.06,-2.37,8.99,6.04
36.225,0.07,0.12,0,-1.61,9.49,6.09
36.24,0,0.05,0.07,-0.58,10.27,5.84
36.255,-0.04,0.07,0.03,-0.83,10.92,5.3
36.27,-0.06,0.1,0,-0.63,10.97,5.82
36.285,-0.09,0.11,0.01,-0.85,9.87,5.37
36.3,-0.1,0.1,0.05,0,9.51,5.6
36.315,-0.02,0.11,0.11,0.36,8.92,5.89
36.33,0,0.13,0.09,-0.34,8.46,4.95
36.345,0,0.14,0.06,-0.6,7.72,4.75
36.36,0.01,0.14,0.06,-1.04,7.32,4.33
36.375,0.02,0.11,0.09,-1.37,7.1,4.16
36.39,0.03,0.1,0.12,-0.7,6.82,3.96
36.405,0.04,0.07,0.14,-0.91,6.69,4.43
36.42,0.05,0.08,0.13,-1.11,7.08,4.17
36.435,0.05,0.09,0.09,-0.64,7.75,4.65
36.45,0.05,0.18,0,-1.6,8.57,5.16
36.465,0.03,0.17,0.02,-2.33,8.58,5.01
36.48,0.01,0.13,0.08,-1.55,8.46,5.09
36.495,0,0.16,0.06,-1.22,8.02,4.57
36.51,-0.01,0.18,0.03,-0.75,10.51,6.15
36.525,0.02,0.14,0.11,-1.06,10.26,5.61
36.54,0.02,0.16,0.08,-0.78,9.67,5.83
36.555,0,0.16,0.07,-1.13,9.42,5.19
36.57,-0.04,0.15,0.08,-1.42,9.31,5
36.585,-0.04,0.13,0.11,-1.07,9.23,4.74
36.6,-0.04,0.1,0.15,-0.69,8.8,4.92
36.615,-0.03,0.09,0.14,-1.23,7.95,4.59
36.63,-0.02,0.11,0.11,-1.47,7.45,4.2
36.645,-0.03,0.14,0.11,-1.71,6.82,4.06
36.66,-0.03,0.14,0.12,-1.4,7.38,3.85
36.675,-0.01,0.16,0.11,-1.28,7.96,4.26
36.69,0,0.23,0.05,-2.3,7.9,4.59
36.705,-0.02,0.21,0.08,-1.08,7.23,4.03
36.72,-0.02,0.17,0.14,-1.63,7.83,4.36
36.735,0,0.15,0.16,-1.76,9.29,4.91
36.75,0.02,0.19,0.09,-2.32,10.16,5.45
36.765,0.03,0.19,0.08,-2.19,10.95,5.78
36.78,0,0.16,0.11,-2.12,9.33,5.49
36.795,-0.02,0.14,0.11,-1.64,8.53,4.62
36.81,-0.03,0.18,0.07,-1.81,9.46,5.17
36.825,-0.02,0.17,0.09,-0.95,9.66,5.16
36.84,-0.01,0.16,0.13,-1.26,9.28,5.09
36.855,-0.01,0.14,0.17,-0.77,8.47,4.79
36.87,-0.03,0.18,0.11,-1.01,8.25,4.71
36.885,-0.02,0.21,0.08,-1.45,7.9,4.51
36.9,0,0.2,0.12,-1.66,7.87,4.23
36.915,0.02,0.19,0.15,-1.5,7.53,4.51
36.93,0.04,0.17,0.17,-1.3,7.11,4.24
36.945,0.03,0.15,0.17,-1.25,6.79,3.94
36.96,0.03,0.15,0.15,-1.5,7.48,4.25
36.975,0.01,0.16,0.13,-1.96,9.25,5.07
36.99,0,0.16,0.12,-1.34,8.95,5.13
37.005,-0.03,0.14,0.12,-1.52,8.52,4.94
37.02,-0.08,0.13,0.12,-1.38,8.86,5.13
37.035,-0.08,0.14,0.09,-1.99,9.03,5.39
37.05,-0.06,0.18,0.05,-2.03,9.43,5.4
37.065,-0.02,0.2,0.01,-2.36,9.29,5.4
37.08,-0.01,0.19,0.04,-2.24,9.32,5.43
37.095,-0.01,0.18,0.08,-1.4,9.65,5.25
37.11,-0.05,0.25,0,-2.4,8.44,4.25
37.125,-0.05,0.27,0,-1.88,9.32,4.86
37.14,-0.01,0.19,0.15,-1.5,9.07,5.03
37.155,0,0.17,0.18,-0.38,8.3,5.1
37.17,0.01,0.18,0.19,-0.73,7.99,4.83
37.185,0,0.19,0.15,-1.41,7.88,4.85
37.2,0.03,0.2,0.16,-1.36,8,4.68
37.215,0.04,0.17,0.2,-1.6,7.72,4.49
37.23,0.05,0.16,0.2,-1,8.14,4.97
37.245,0.07,0.17,0.2,-1.93,7.89,4.49
37.26,0.08,0.18,0.17,-1.56,7.93,4.72
37.275,0.08,0.21,0.12,-2.66,8.39,4.69
37.29,0.06,0.22,0.12,-2.31,8.74,4.78
37.305,0,0.22,0.09,-2.46,9.4,5.25
37.32,0,0.21,0.08,-1.88,9.11,5.19
37.335,-0.01,0.19,0.08,-1.46,8.38,4.98
37.35,-0.01,0.19,0.04,-1.88,8.16,4.25
37.365,0,0.19,0.01,-2.15,8.29,4.66
37.38,0.01,0.17,0,-1.8,8.8,5.05
37.395,0,0.14,0.04,-1.01,9.68,5.52
37.41,0,0.12,0.07,-0.72,9.95,5.33
37.425,0.01,0.14,0.07,-0.55,9.9,5.48
37.44,0,0.15,0.04,-0.29,8.42,4.83
37.455,0,0.17,0.04,-1.08,8.96,4.76
37.47,0.01,0.2,0.08,-1.3,9.63,5.25
37.485,0.02,0.17,0.14,-0.44,9.77,5.61
37.5,0.02,0.16,0.19,-0.86,9.71,5.49
37.515,0.02,0.17,0.16,-0.98,8.2,5.16
37.53,0.02,0.17,0.15,-1.37,7.75,4.45
37.545,0.02,0.16,0.15,-1.51,7.29,4.11
37.56,0.02,0.12,0.19,-1.06,7.2,4.27
37.575,0.02,0.12,0.18,-1.54,7.48,4.07
37.59,0.02,0.15,0.13,-2.26,7.56,4.43
37.605,0.02,0.22,0.03,-2.74,8.48,4.71
37.62,0.03,0.19,0.08,-1.69,8.53,5
37.635,0.03,0.12,0.13,-0.89,9.61,5.18
37.65,0.04,0.16,0.05,-1.06,9.12,5.43
37.665,0.03,0.19,0,-1.62,8.5,5.08
37.68,0,0.18,0.01,-2.09,8.69,4.85
37.695,-0.01,0.17,0.03,-2.04,8.66,5.1
37.71,-0.02,0.16,0.04,-1.55,8.92,4.83
37.725,-0.03,0.15,0.06,-0.89,10.08,5.73
37.74,-0.03,0.14,0.07,-1.29,9.98,5.63
37.755,-0.04,0.16,0.06,-0.81,8.97,5.37
37.77,-0.01,0.18,0.07,-0.61,8.22,4.8
37.785,0,0.17,0.11,-0.94,8,4.68
37.8,0.04,0.17,0.17,-1.09,8.1,4.79
37.815,0.04,0.2,0.13,-1.52,7.69,4.55
37.83,0.04,0.25,0.06,-2.13,7.23,4.31
37.845,0,0.18,0.19,-2.45,7.43,3.87
37.86,0,0.12,0.3,-0.07,8.64,4.68
37.875,0,0.09,0.33,-0.02,8.81,4.96
37.89,-0.01,0.21,0.1,-2.25,8.42,5.04
37.905,-0.02,0.24,0.03,-2.8,7.69,4.74
37.92,-0.04,0.22,0.05,-3.1,7.54,4.22
37.935,-0.03,0.14,0.15,-2.64,8.71,4.79
37.95,-0.02,0.12,0.17,-1.43,9.17,5.21
37.965,0,0.16,0.08,-1.85,9.05,4.89
37.98,-0.01,0.22,-0.01,-2.17,9.02,4.85
37.995,-0.03,0.21,0,-1.89,9.09,4.83
38.01,-0.04,0.18,0.04,-1.66,9.22,5.25
38.025,-0.04,0.16,0.06,-1.02,9.2,4.94
38.04,-0.05,0.15,0.07,-0.74,9.27,4.71
38.055,-0.04,0.17,0.02,-0.93,9.2,5.39
38.07,-0.01,0.17,0.03,-0.74,7.96,4.68
38.085,0,0.14,0.08,-1.09,7.89,4.71
38.1,0.04,0.11,0.12,-0.41,7.47,4.33
38.115,0.04,0.14,0.1,-0.32,7.75,4.48
38.13,0.03,0.17,0.08,-1.31,7.98,4.55
38.145,0.02,0.15,0.14,-1.13,7.69,4.32
38.16,0,0.12,0.18,-0.8,7.77,4.49
38.175,-0.01,0.2,0.09,-1.5,8.72,4.97
38.19,0.01,0.21,0.09,-2.17,9.05,5.21
38.205,0.03,0.19,0.12,-1.78,8.87,5.27
38.22,0.05,0.16,0.15,-1.45,8.07,4.91
38.235,0.04,0.16,0.13,-1.56,8.09,4.58
38.25,0.03,0.17,0.1,-1.64,8.34,4.69
38.265,0.01,0.15,0.1,-1.32,8.89,5.04
38.28,0,0.12,0.14,-0.65,9.41,5.08
38.295,0,0.14,0.05,-1.44,10.58,5.68
38.31,0,0.17,0,-1.79,9.83,5.9
38.325,0.02,0.19,-0.01,-2.07,8.81,5.33
38.34,0.02,0.15,0.05,-1.68,8.27,4.82
38.355,0.02,0.15,0.05,-1.63,8.37,4.9
38.37,0.03,0.16,0.04,-1.65,8.28,4.68
38.385,0.03,0.15,0.08,-0.68,8.01,4.56
38.4,0.01,0.14,0.11,-0.71,7.68,4.39
38.415,0,0.17,0.06,-1.18,7.78,4.39
38.43,0,0.23,-0.01,-2.06,7.91,4.52
38.445,-0.02,0.21,0.01,-1.86,8.35,4.43
38.46,-0.03,0.17,0.12,-1.19,8.76,5.13
38.475,-0.03,0.16,0.14,-0.77,7.75,4.86
38.49,-0.02,0.17,0.13,-0.61,7.84,4.6
38.505,0.01,0.17,0.15,-0.71,9,5.02
38.52,0.02,0.18,0.18,-1.13,9.64,5.46
38.535,0.03,0.16,0.2,-0.28,9.25,5.49
38.55,0.03,0.18,0.16,-1.18,9.4,5.31
38.565,0.02,0.17,0.13,-2.11,9.41,5.32
38.58,0,0.17,0.11,-2.03,9.16,5.11
38.595,-0.02,0.15,0.13,-2.22,8.94,4.9
38.61,-0.02,0.14,0.14,-1.83,9.12,5.14
38.625,-0.03,0.14,0.11,-1.92,8.85,5.13
38.64,-0.02,0.19,0.04,-2.02,8.48,5.06
38.655,-0.01,0.19,0.03,-2.14,8.01,4.95
38.67,0,0.16,0.07,-1.34,7.58,4.65
38.685,0.01,0.15,0.07,-0.99,7.58,4.51
38.7,0.02,0.15,0.04,-1.34,7.78,4.55
38.715,0.04,0.15,0.02,-1.03,8.22,4.88
38.73,0.05,0.12,0.07,-0.75,8.21,4.87
38.745,0.05,0.1,0.09,-0.58,8.5,4.99
38.76,0.04,0.14,0.05,-0.79,8.46,4.97
38.775,0.03,0.16,0.02,-1.06,8.71,5.07
38.79,0.03,0.16,0.03,-1.5,9.09,5.22
38.805,0.04,0.15,0.12,-0.47,9.03,5.67
38.82,0.03,0.13,0.16,-0.92,8.85,5.31
38.835,0.01,0.15,0.14,-0.54,8.73,5.13
38.85,0.01,0.17,0.12,-1.4,8.65,5.02
38.865,0,0.19,0.09,-1.36,8.64,5.05
38.88,-0.01,0.21,0.08,-2.03,8.68,5.19
38.895,-0.02,0.18,0.1,-1.85,8.11,4.77
38.91,-0.03,0.15,0.13,-1.29,7.6,4.65
38.925,-0.03,0.13,0.16,-1,7.72,4.66
38.94,-0.02,0.13,0.15,-1.34,7.8,4.86
38.955,-0.02,0.13,0.14,-1.33,8.13,4.92
38.97,-0.02,0.11,0.14,-1.24,8.63,5.06
38.985,0,0.13,0.11,-0.91,8.58,5.33
39,0.02,0.18,0,-2.26,9.71,5.58
39.015,0.05,0.19,-0.02,-2.28,9.61,5.96
39.03,0.08,0.19,0,-1.95,8.85,5.83
39.045,0.05,0.11,0.1,-0.11,7.95,5.06
39.06,-0.02,0.06,0.14,0.31,7.7,5.16
39.075,-0.05,0.08,0.1,0.05,7.64,5.03
39.09,-0.11,0.07,0.1,0.02,7.9,5.56
39.105,-0.12,0.05,0.13,0.12,7.94,5.55
39.12,-0.11,0.04,0.13,-1.3,8.15,5.76
39.135,-0.04,0.09,0.05,-1.76,6.76,5.28
39.15,-0.02,0.08,0.05,-0.92,6.53,4.92
39.165,0,0.01,0.13,-0.31,7.61,5.13
39.18,0.03,0.02,0.12,-0.81,8.11,5.53
39.195,0.05,0.06,0.08,-0.15,8.4,5.43
39.21,0.06,0.11,0,-1.44,9.31,5.32
39.225,0.05,0.14,-0.04,-2.03,9.28,5.27
39.24,0.03,0.16,-0.05,-1.59,9.39,5.17
39.255,-0.01,0.14,-0.01,-1.29,9.81,5.73
39.27,-0.04,0.13,0.05,-1.4,9.23,5.79
39.285,-0.05,0.12,0.08,-0.49,8.35,5.56
39.3,-0.02,0.13,0.1,0.11,7.29,4.95
39.315,0,0.15,0.1,-0.64,6.95,4.73
39.33,0.03,0.14,0.14,-0.34,7.96,4.57
39.345,0.04,0.15,0.16,-1.42,8.38,4.91
39.36,0.04,0.19,0.14,-2.19,8.32,4.94
39.375,-0.02,0.2,0.14,-2.33,7.25,4.36
39.39,-0.03,0.2,0.18,-1.64,8,4.63
39.405,0,0.18,0.23,-1.24,8.81,5.35
39.42,0.08,0.18,0.19,-2,8.71,5.75
39.435,0.07,0.21,0.11,-2.9,8.38,5.27
39.45,0.05,0.22,0.07,-3.45,8.07,4.92
39.465,0,0.17,0.12,-2.21,9.57,5.47
39.48,-0.01,0.15,0.15,-1.9,9.87,5.75
39.495,-0.03,0.16,0.02,-2.13,9.62,5.71
39.51,-0.05,0.17,-0.01,-2.25,9.12,5.71
39.525,-0.04,0.15,-0.01,-1.9,8.79,5.32
39.54,-0.01,0.1,0.04,-0.82,7.79,5.15
39.555,0,0.09,0.04,-0.39,7.72,4.92
39.57,0.02,0.1,0.01,-1.31,7.45,4.73
39.585,0.05,0.13,-0.02,-0.81,7.71,4.94
39.6,0.06,0.1,0.02,-0.2,7.8,4.96
39.615,0.07,0.11,0.01,-0.39,7.97,4.9
39.63,0.08,0.16,-0.07,-1.12,7.76,4.54
39.645,0.06,0.14,-0.05,-1.05,7.97,4.98
39.66,0.02,0.06,0.1,-0.05,8.53,5.43
39.675,0.01,0.05,0.14,0.37,8.81,5.61
39.69,0,0.07,0.13,0.03,9.13,5.74
39.705,0,0.13,0.08,-0.99,9.35,5.95
39.72,-0.01,0.11,0.14,-0.79,9.22,5.75
39.735,-0.02,0.09,0.19,-0.78,9.02,5.6
39.75,-0.02,0.12,0.15,-1.15,8.76,5.32
39.765,-0.01,0.17,0.08,-1.73,8.63,5.31
39.78,-0.01,0.2,0.04,-2.54,8.31,5.19
39.795,-0.01,0.14,0.15,-1.82,8.13,5.03
39.81,-0.01,0.11,0.19,-1.27,8.27,5.34
39.825,0.01,0.15,0.11,-1.04,8.23,5.34
39.84,0.02,0.18,0.04,-2.75,7.49,4.9
39.855,0.02,0.19,0.01,-2.7,7.35,4.76
39.87,0.03,0.17,0.06,-2.1,8.5,5.41
39.885,0.05,0.14,0.11,-1.49,8.6,5.79
39.9,0.05,0.11,0.13,-0.73,8.45,5.6
39.915,0.03,0.1,0.11,-0.56,8.44,5.52
39.93,-0.02,0.14,0.04,-0.98,8.65,5.38
39.945,-0.03,0.13,0.05,-1.03,8.25,5.25
39.96,-0.02,0.11,0.08,-0.52,8.42,5.36
39.975,0,0.12,0.07,-1.07,8.27,5.31
39.99,0.01,0.14,0.04,-1.49,8.35,5.2
40.005,0,0.13,0.04,-1.21,8.49,5.27
40.02,0,0.1,0.08,-0.94,8.72,5.43
40.035,0.02,0.07,0.11,-0.6,8.39,5.36
40.05,0.04,0.1,0.04,-1.84,8.78,5.66
40.065,0.06,0.14,0,-1.41,8.62,5.46
40.08,0.07,0.15,0.01,-1.87,8.79,5.51
40.095,0.05,0.14,0.02,-1.78,9.07,5.56
40.11,0.03,0.13,0.04,-1.3,8.73,5.57
40.125,-0.01,0.08,0.13,-0.25,7.99,5.27
40.14,-0.03,0.07,0.16,-0.48,7.62,4.81
40.155,-0.05,0.15,0.08,-0.2,7.35,4.87
40.17,-0.04,0.17,0.08,-1.67,7.62,4.81
40.185,-0.03,0.18,0.1,-1.84,7.67,4.71
40.2,-0.04,0.16,0.16,-1.63,8.14,5
40.215,-0.05,0.14,0.2,-1.27,8.1,5.02
40.23,-0.05,0.12,0.21,-1.27,8.45,5.16
40.245,-0.02,0.15,0.17,-1.97,8.09,5.09
40.26,0,0.17,0.12,-2.29,8.71,5.24
40.275,0.02,0.18,0.09,-2.52,9.15,5.23
40.29,-0.01,0.19,0.08,-2.29,9.13,5.25
40.305,-0.04,0.18,0.08,-2.06,9.32,5.59
40.32,-0.08,0.18,0.07,-2.17,9.42,5.4
40.335,-0.08,0.17,0.07,-1.85,9.07,5.68
40.35,-0.07,0.15,0.1,-1.28,8.91,5.59
40.365,0,0.13,0.11,-1.18,7.75,5.17
40.38,0.03,0.14,0.09,-1.62,7.54,4.75
40.395,0.05,0.15,0.06,-1.53,7.42,4.73
40.41,0.04,0.16,0.05,-1.65,7.73,4.56
40.425,0.04,0.15,0.09,-1.28,7.7,4.91
40.44,0.05,0.12,0.14,-0.84,7.39,4.67
40.455,0.05,0.1,0.17,-0.57,7.69,4.5
40.47,0.06,0.14,0.12,-1.88,8.29,5.32
40.485,0.01,0.22,0.05,-2.59,8,5.14
40.5,-0.01,0.2,0.09,-2.01,7.66,4.91
40.515,-0.05,0.18,0.15,-1.55,8.48,4.91
40.53,-0.03,0.16,0.18,-1.42,8.71,5.46
40.545,-0.02,0.18,0.14,-1.28,8.84,5.42
40.56,-0.01,0.21,0.09,-2.14,9.09,5.38
40.575,0,0.21,0.11,-2,9.18,5.17
40.59,-0.02,0.18,0.15,-2.06,9.62,5.41
40.605,-0.03,0.18,0.15,-1.9,9.68,5.54
40.62,-0.03,0.22,0.11,-1.97,9.26,5.43
40.635,-0.03,0.24,0.08,-2.32,9.02,5.25
40.65,0.01,0.23,0.08,-2.27,8.16,5.18
40.665,0.02,0.22,0.11,-2.64,8.14,4.79
40.68,0.01,0.21,0.14,-2.14,8.14,4.76
40.695,-0.03,0.2,0.14,-1.77,7.38,4.6
40.71,-0.03,0.21,0.13,-1.63,7.23,4.48
40.725,-0.03,0.21,0.12,-2.08,7.11,4.4
40.74,0,0.24,0.07,-2.24,7.54,4.64
40.755,0.02,0.23,0.09,-2.06,8.02,4.6
40.77,0.03,0.23,0.11,-1.96,8.44,5.07
40.785,0.06,0.23,0.13,-1.77,8.03,5.05
40.8,0.07,0.21,0.14,-1.91,8.09,4.91
40.815,0.05,0.21,0.16,-1.66,8.93,5.19
40.83,0.03,0.21,0.15,-1.68,9.45,5.38
40.845,0.02,0.24,0.12,-1.87,9.41,5.32
40.86,-0.01,0.25,0.07,-2.56,9.3,5.59
40.875,-0.03,0.24,0.08,-2.62,9.11,5.46
40.89,-0.06,0.21,0.11,-2.02,8.02,4.79
40.905,-0.1,0.18,0.12,-2.1,7.55,4.5
40.92,-0.1,0.19,0.12,-1.66,8.35,4.73
40.935,-0.08,0.18,0.14,-1.53,9.07,5.17
40.95,0,0.2,0.14,-2.28,8.84,5.33
40.965,0.01,0.23,0.1,-2.03,8.82,5.16
40.98,0.02,0.25,0.08,-2.67,8.48,5.06
40.995,0.03,0.23,0.11,-1.94,8.39,4.8
41.01,0.02,0.19,0.16,-1.66,8.62,4.85
41.025,0.01,0.18,0.19,-1.67,8.65,4.91
41.04,0.01,0.21,0.14,-1.86,8.29,4.94
41.055,0,0.23,0.1,-2.61,8.02,4.74
41.07,-0.03,0.24,0.09,-2.49,7.75,4.64
41.085,-0.04,0.19,0.15,-2.24,7.78,4.71
41.1,-0.05,0.16,0.2,-1.97,7.8,4.57
41.115,-0.04,0.16,0.21,-2.05,7.57,4.53
41.13,0,0.2,0.14,-2.44,7.42,4.54
41.145,0.04,0.25,0.09,-2.66,7.74,4.46
41.16,0.06,0.24,0.13,-2.18,9.57,5.26
41.175,0.05,0.25,0.14,-2.24,9.69,5.34
41.19,0.03,0.26,0.14,-2.54,9.29,5.13
41.205,0.02,0.25,0.18,-1.95,9.33,5.08
41.22,0.02,0.24,0.22,-1.46,9.78,5.47
41.235,0,0.25,0.21,-1.82,9.35,5.4
41.25,-0.02,0.26,0.17,-2.6,8.97,5.17
41.265,-0.04,0.27,0.15,-2.93,8.44,4.82
41.28,-0.04,0.26,0.15,-3.47,8.35,4.66
41.295,-0.03,0.25,0.16,-2.86,8.27,4.83
41.31,0,0.24,0.17,-2.53,7.71,4.68
41.325,0.01,0.24,0.17,-2.73,7.96,4.38
41.34,0.03,0.25,0.16,-2.31,8.62,4.72
41.355,0.07,0.3,0.1,-3.29,8.4,4.85
41.37,0.06,0.3,0.1,-2.64,7.63,4.29
41.385,0.04,0.29,0.12,-2.91,7.49,4.2
41.4,0.01,0.28,0.13,-2.87,8.61,4.54
41.415,0.02,0.29,0.13,-3.07,9.93,5.62
41.43,0.03,0.3,0.12,-2.02,9.55,5.76
41.445,0.02,0.27,0.17,-2,7.87,4.91
41.46,-0.01,0.24,0.19,-2.09,7.67,4.38
41.475,-0.02,0.25,0.18,-1.63,8.56,4.85
41.49,-0.03,0.26,0.15,-2.25,9.01,4.93
41.505,-0.02,0.28,0.11,-2,9.37,5.21
41.52,0,0.26,0.13,-1.88,9.18,5.25
41.535,0,0.24,0.14,-1.73,8.91,5.18
41.55,0,0.23,0.13,-2.11,8.59,4.7
41.565,0,0.19,0.13,-1.61,8.34,4.89
41.58,-0.01,0.16,0.13,-2.12,7.73,4.3
41.595,-0.01,0.15,0.13,-1.09,7.51,4.12
41.61,0,0.19,0.07,-1.56,8.18,4.6
41.625,0,0.2,0.03,-1.85,9.11,5.06
41.64,-0.01,0.18,0.04,-2.2,8.95,4.93
41.655,-0.02,0.14,0.08,-1.02,8.2,4.7
41.67,-0.02,0.12,0.12,-1.02,7.98,4.5
41.685,0.02,0.12,0.09,-1.27,7.81,4.34
41.7,0.03,0.13,0.07,-0.79,8.04,4.53
41.715,0.02,0.14,0.07,-0.82,8.36,4.51
41.73,0,0.14,0.07,-1.6,9.49,4.85
41.745,-0.01,0.16,0.06,-1.14,8.95,4.89
41.76,-0.04,0.14,0.11,-0.81,8.42,4.64
41.775,-0.07,0.09,0.19,-0.5,7.96,4.12
41.79,-0.04,0.11,0.15,-0.86,8.62,4.52
41.805,-0.01,0.2,0.06,-1.81,9.58,5.16
41.82,-0.01,0.19,0.08,-2.45,9.45,5.13
41.835,-0.02,0.17,0.11,-1.8,8.96,4.78
41.85,0,0.13,0.16,-1.66,8.75,4.61
41.865,0,0.12,0.15,-1.65,8.28,4.34
41.88,0,0.14,0.11,-1.69,8.26,4.15
41.895,-0.04,0.13,0.11,-1.89,8.33,4.15
41.91,-0.05,0.13,0.1,-1.4,8.89,4.32
41.925,-0.03,0.15,0.09,-1.82,8.89,4.62
41.94,-0.02,0.19,0.02,-2.29,7.98,4.26
41.955,-0.02,0.22,0,-2.49,7.25,3.92
41.97,-0.03,0.22,0,-2.41,6.67,3.37
41.985,-0.05,0.18,0.09,-1.43,8.99,4.27
42,-0.02,0.15,0.17,0,9.46,4.98
42.015,0,0.11,0.16,0.06,10.17,4.74
42.03,0.03,0.19,0.01,-0.83,11.51,5.49
42.045,0.06,0.25,-0.06,-2.86,9.43,5.12
42.06,0.07,0.14,0.08,-2.2,8.87,4.53
42.075,0.05,0.09,0.17,-1.42,8.86,4.26
42.09,0.05,0.06,0.21,-1,9.02,4.57
42.105,0.04,0.12,0.14,-1.09,8.61,3.82
42.12,0.01,0.21,0.03,-1.18,8.75,3.98
42.135,0,0.22,0.01,-1.76,8.99,4.03
42.15,-0.02,0.15,0.1,-0.86,8,3.92
42.165,-0.02,0.11,0.14,-0.68,7.93,3.88
42.18,0,0.1,0.09,-1.52,8.07,4.2
42.195,0.04,0.14,0,-1.65,7.81,4.04
42.21,0.08,0.16,-0.04,-2.77,8.3,3.97
42.225,0.1,-0.01,0.22,-0.59,9.72,4.68
42.24,0.09,0,0.21,0.95,10.17,4.54
42.255,0.08,0.07,0.08,-0.59,11.08,5.13
42.27,0.02,0.19,-0.15,-2.38,9.93,5
42.285,0,0.17,-0.09,-1.7,9.37,4.49
42.3,-0.03,0.02,0.17,-0.85,9.35,4.53
42.315,-0.03,0.02,0.18,0.04,9.79,4.96
42.33,-0.02,0.05,0.12,-0.77,8.99,4.61
42.345,-0.03,0.11,0.01,-1.43,7.85,3.59
42.36,-0.02,0.1,0.03,-1.5,7.79,3.72
42.375,0,0.1,0.06,-1.03,7.66,3.86
42.39,0.02,0.09,0.09,-0.82,7.5,3.5
42.405,0.02,0.09,0.09,-0.9,8.09,3.56
42.42,0.01,0.09,0.08,-1.04,8.43,4.01
42.435,-0.01,0.09,0.06,-1.22,8.99,4.26
42.45,-0.02,0.07,0.1,-0.73,9.14,4.52
42.465,-0.02,0.06,0.1,-1.25,9.2,4.5
42.48,-0.03,0.09,0.04,-0.97,9.19,4.62
42.495,-0.03,0.1,0.03,-1.36,9.43,4.53
42.51,-0.04,0.09,0.04,-1.14,9.75,4.62
42.525,-0.05,0.11,0.02,-1.31,9.68,4.93
42.54,-0.04,0.13,0.01,-1.74,9.3,4.49
42.555,-0.04,0.05,0.15,-0.08,9.21,4.39
42.57,-0.01,0.06,0.15,-0.21,9.23,4.3
42.585,0.01,0.08,0.11,0,9.15,4.33
42.6,0.06,0.18,-0.06,-2.18,8.41,4.24
42.615,0.05,0.18,-0.07,-2.3,7.78,3.79
42.63,0.02,0.14,-0.02,-2.2,7.66,3.64
42.645,0,0.06,0.13,-0.51,8.38,3.74
42.66,0,0.05,0.13,-0.24,8.84,4.23
42.675,0.02,0.12,0,-1.18,8.15,4.05
42.69,0.02,0.13,0,-1.55,8.13,4.06
42.705,0.03,0.12,0.03,-1.21,8.54,4.04
42.72,0.04,0.07,0.11,-0.62,8.89,4.25
42.735,0.04,0.07,0.11,-0.89,9.33,4.45
42.75,0.03,0.09,0.06,-0.66,9.64,4.59
42.765,0.02,0.11,0.02,-1.31,8.59,4.34
42.78,0.01,0.08,0.08,-0.67,8.29,4.03
42.795,0.01,0.04,0.13,-0.38,8.59,3.86
42.81,0,0.04,0.13,-0.08,9.61,4.15
42.825,-0.02,0.07,0.07,-0.47,10.21,4.78
42.84,-0.03,0.1,0.02,-1.04,10.62,4.96
42.855,-0.04,0.12,-0.02,-1.48,9.26,4.85
42.87,-0.04,0.1,0.01,-1.15,8.78,4.37
42.885,0.03,0.05,0.06,-0.04,9.16,4.6
42.9,0.06,0.07,0.03,-0.89,8.79,4.49
42.915,0.07,0.08,0.01,-0.63,8.55,4.17
42.93,0.06,0.08,0.01,-1.22,9,3.92
42.945,0.05,0.08,0.01,-1.17,8.88,4.31
42.96,0.03,0.07,0.02,-1.03,8.47,4.02
42.975,-0.02,0.07,0.06,-0.39,8.61,3.76
42.99,-0.02,0.07,0.07,-0.34,9.27,4.34
43.005,0,0.08,0.08,-0.18,9.15,4.6
43.02,0.04,0.08,0.06,-0.56,8.44,4.47
43.035,0.06,0.09,0.04,-0.9,8.18,4.32
43.05,0.06,0.07,0.06,-0.93,8.03,3.94
43.065,0.05,0.06,0.09,-0.75,8.52,3.84
43.08,0.03,0.05,0.09,-0.75,9.75,4.49
43.095,-0.04,0.06,0.05,-0.88,9.45,4.55
43.11,-0.05,0.05,0.05,-0.68,9.15,4.39
43.125,-0.05,0.04,0.05,-0.75,9,4.45
43.14,-0.02,0.05,0.01,-0.68,9.54,4.87
43.155,-0.02,0.06,0,-1.16,9.62,4.7
43.17,-0.04,0.05,0,-1,8.64,4.41
43.185,-0.06,0.03,0.03,-0.29,8.68,4.19
43.2,-0.07,0.01,0.05,0.08,8.33,3.89
43.215,-0.05,0,0.04,-0.2,8.31,3.91
43.23,-0.02,0.03,0,-0.46,8.68,4.01
43.245,0,0.06,-0.03,-1.15,8.81,4.27
43.26,0.03,0.06,0,-1.09,9.92,4.73
43.275,0.03,0.06,0,-1.06,9.77,4.82
43.29,0.03,0.06,0.01,-0.55,9.06,4.39
43.305,0.01,0.05,0,-0.46,9.41,4.47
43.32,0.04,0.07,-0.01,-0.65,9.53,4.65
43.335,0.08,0.07,0,-0.85,9.23,4.72
43.35,0.09,0.05,0.04,-0.68,8.15,4.26
43.365,0.08,0.03,0.07,0,7.78,3.7
43.38,0.05,0.04,0.07,0,8.68,3.92
43.395,0.04,0.06,0.04,-0.94,8.92,4.32
43.41,0.02,0.08,0,-1.2,8.32,4.03
43.425,-0.02,0.05,0.06,-1.03,7.59,3.61
43.44,0,0.02,0.1,-0.57,7.58,3.68
43.455,0,0.02,0.12,-0.08,7.85,3.71
43.47,0.06,0.08,0.06,-0.36,8.47,4.37
43.485,0.06,0.13,0,-1.18,8.87,4.23
43.5,0.04,0.15,-0.04,-2.25,9.5,4.45
43.515,0.02,0.11,0.01,-1.17,9.74,4.55
43.53,0,0.06,0.08,-0.89,9.97,4.72
43.545,-0.05,0.06,0.02,-0.52,10.1,4.78
43.56,-0.07,0.11,-0.05,-0.66,9.9,4.96
43.575,-0.07,0.14,-0.11,-1.61,10.14,4.84
43.59,-0.06,0.11,-0.05,-1.72,10.21,5.13
43.605,-0.05,0.08,0,-0.65,9.04,4.67
43.62,-0.04,0.06,0.05,-0.47,8.4,4.21
43.635,-0.05,0.04,0.08,0.11,8.14,3.72
43.65,-0.05,0.09,0.04,-1.33,8.15,3.68
43.665,-0.04,0.13,0.07,-1.73,8.14,3.84
43.68,-0.04,0.11,0.12,-0.99,7.81,3.65
43.695,-0.03,0.1,0.16,-1.16,7.56,3.43
43.71,0,0.15,0.14,-1.82,8.1,3.83
43.725,0,0.19,0.09,-2.6,8.47,3.97
43.74,0,0.22,0.05,-2.93,8.26,3.95
43.755,0,0.19,0.09,-2.69,8.72,4.08
43.77,0,0.18,0.11,-2.43,8.82,4.13
43.785,0,0.18,0.11,-1.93,9.6,4.36
43.8,0.02,0.19,0.1,-1.51,9.99,4.8
43.815,0.03,0.19,0.1,-1.7,10.28,5.01
43.83,0.06,0.2,0.1,-2,9.78,4.95
43.845,0.09,0.19,0.12,-1.53,8.94,3.87
43.86,0.08,0.2,0.12,-2.14,9.36,4.03
43.875,0,0.25,0.1,-2.7,9.86,4.38
43.89,0,0.24,0.14,-2.33,9.31,4.23
43.905,-0.01,0.24,0.18,-2.33,8.66,4.04
43.92,-0.02,0.25,0.22,-2.17,7.81,3.55
43.935,-0.02,0.28,0.2,-2.7,7.66,3.42
43.95,-0.02,0.31,0.18,-2.57,7.66,3.46
43.965,-0.04,0.31,0.22,-2.37,8.14,3.68
43.98,-0.04,0.3,0.23,-2.2,8.43,3.64
43.995,-0.01,0.35,0.13,-2.65,8.71,4.07
44.01,-0.01,0.37,0.09,-3.62,8.85,3.85
44.025,0,0.37,0.09,-3.74,9.26,4.17
44.04,0.01,0.32,0.17,-2.87,10.26,4.54
44.055,0.03,0.3,0.21,-2.14,10.31,4.89
44.07,0.04,0.3,0.21,-2,10.26,4.84
44.085,0.05,0.36,0.11,-2.16,10.44,4.6
44.1,0.05,0.36,0.12,-2.36,10.63,4.81
44.115,0.03,0.33,0.17,-2.84,10.63,4.84
44.13,0,0.29,0.24,-1.66,9.08,4.04
44.145,0,0.31,0.23,-2.42,8.83,3.86
44.16,-0.01,0.34,0.2,-2.99,8.48,3.6
44.175,-0.04,0.41,0.14,-3.16,7.81,3.38
44.19,-0.08,0.41,0.2,-2.77,7.74,3.12
44.205,-0.09,0.37,0.32,-2.64,7.67,3.26
44.22,-0.08,0.35,0.35,-2.41,7.82,3.32
44.235,-0.06,0.35,0.35,-2.11,8.28,3.12
44.25,0,0.41,0.25,-2.85,7.82,3.21
44.265,0.02,0.45,0.2,-5.03,7.96,3.59
44.28,0.03,0.48,0.19,-3.97,8.7,3.25
44.295,0.07,0.46,0.25,-3.65,10.48,4.64
44.31,0.09,0.42,0.29,-3.49,10.32,4.77
44.325,0.1,0.42,0.27,-2.43,10.28,4.67
44.34,0.09,0.43,0.23,-2.82,10.38,4.57
44.355,0.07,0.44,0.19,-2.46,10.54,4.78
44.37,0.02,0.44,0.18,-2.08,10.6,4.74
44.385,0,0.41,0.19,-1.9,10.05,4.79
44.4,-0.01,0.39,0.2,-1.8,9.53,4.26
44.415,-0.07,0.37,0.17,-1.65,8.78,3.92
44.43,-0.07,0.35,0.19,-1.55,8.58,4.07
44.445,-0.07,0.35,0.18,-1.84,8.18,3.76
44.46,-0.08,0.37,0.16,-2.13,8.02,3.69
44.475,-0.08,0.37,0.17,-2.13,7.82,3.53
44.49,-0.07,0.36,0.2,-2.19,7.71,3.42
44.505,-0.03,0.34,0.24,-1.95,7.17,3.23
44.52,0.02,0.34,0.25,-1.16,6.79,3.23
44.535,0.08,0.41,0.18,-3.03,9.71,4.34
44.55,0.09,0.42,0.16,-3.01,9.35,4.32
44.565,0.1,0.41,0.18,-2.77,9.01,4.4
44.58,0.13,0.37,0.24,-2.53,9.16,4.19
44.595,0.14,0.38,0.21,-2.39,9.68,4.35
44.61,0.15,0.4,0.16,-2.73,10.41,4.68
44.625,0.12,0.37,0.18,-3.17,11.29,5.02
44.64,0.07,0.34,0.24,-1.99,11.04,5.26
44.655,-0.01,0.32,0.26,-1.35,10.91,4.84
44.67,-0.03,0.34,0.22,-1.81,9.95,4.59
44.685,-0.05,0.36,0.2,-1.54,9.66,4.46
44.7,-0.07,0.36,0.22,-1.16,9.3,4.22
44.715,-0.06,0.34,0.25,-1.01,8.87,4.07
44.73,-0.05,0.33,0.27,-1.72,8.85,4.16
44.745,-0.02,0.3,0.28,-2.12,7.95,3.46
44.76,0,0.3,0.26,-2.2,7.5,3.66
44.775,0.01,0.31,0.25,-2.21,7.21,3.13
44.79,0.06,0.32,0.24,-2.79,7.1,3.07
44.805,0.07,0.34,0.23,-3.64,7.71,2.81
44.82,0.07,0.36,0.22,-3.17,7.77,3.26
44.835,0.06,0.37,0.25,-2.77,7.5,3.31
44.85,0.03,0.37,0.28,-2.63,7.72,3.15
44.865,0.03,0.38,0.3,-3.79,10.18,3.89
44.88,0.04,0.42,0.27,-4.28,10.76,4.27
44.895,0.05,0.47,0.24,-4.85,10.96,4.48
44.91,0.02,0.52,0.26,-4.18,10.96,4.58
44.925,0,0.53,0.26,-3.65,11.06,4.57
44.94,0,0.54,0.26,-3.19,10.99,4.74
44.955,-0.03,0.54,0.26,-2.85,10.22,4.42
44.97,-0.02,0.51,0.28,-2.16,9.64,4.53
44.985,-0.02,0.5,0.29,-2.02,8.93,4.04
45,-0.02,0.48,0.24,-3.03,8.21,3.3
45.015,-0.02,0.48,0.21,-2.26,8.1,3.32
45.03,-0.04,0.45,0.24,-3.55,8.43,3.14
45.045,-0.06,0.42,0.31,-3.32,8.4,3.13
45.06,-0.07,0.41,0.36,-3.55,8.31,3.01
45.075,-0.1,0.5,0.39,-4.2,9.08,3.01
45.09,-0.08,0.56,0.39,-3.84,9.29,3.38
45.105,-0.07,0.6,0.4,-3.81,9.38,3.41
45.12,-0.03,0.62,0.44,-3.48,9.79,3.36
45.135,-0.01,0.63,0.46,-3.18,9.65,3.62
45.15,0,0.64,0.46,-2.9,9.41,3.71
45.165,0.01,0.65,0.39,-2.8,8.89,3.6
45.18,0.01,0.65,0.32,-3.55,8.8,3.39
45.195,0,0.57,0.37,-2.96,8.57,3.38
45.21,0,0.53,0.39,-4.41,9.19,2.89
45.225,-0.02,0.52,0.38,-3.84,9.63,3.27
45.24,-0.02,0.59,0.29,-3.61,10.24,3.85
45.255,-0.02,0.61,0.25,-2.37,9.43,4.15
45.27,-0.03,0.61,0.26,-4.32,9.59,3.61
45.285,-0.06,0.6,0.34,-3.75,10.14,3.49
45.3,-0.07,0.61,0.34,-2.74,9.92,3.42
45.315,-0.06,0.64,0.33,-1.66,9.59,4.08
45.33,-0.05,0.62,0.35,-2.94,9.13,3.31
45.345,-0.04,0.59,0.39,-0.97,8.97,3.84
45.36,-0.01,0.58,0.38,-3.36,8.33,3.37
45.375,-0.01,0.53,0.4,-1.96,8.19,3.37
45.39,0.01,0.57,0.36,-3.21,8.14,3.04
45.405,0.01,0.55,0.33,-2.16,8.3,3.33
45.42,0,0.57,0.3,-3.05,8.71,3.09
45.435,0,0.56,0.29,-3.88,8.88,3.35
45.45,-0.01,0.56,0.31,-2.61,9.01,3.72
45.465,-0.01,0.55,0.33,-3.38,9.51,3.48
45.48,-0.01,0.53,0.37,-3.2,10.21,3.55
45.495,0,0.58,0.33,-3.14,10.68,4.11
45.51,0,0.6,0.3,-2.05,10.57,4.07
45.525,0,0.59,0.31,-2.26,9.8,4.02
45.54,-0.01,0.56,0.33,-1.51,9.4,3.87
45.555,-0.01,0.56,0.32,-1.19,8.87,3.76
45.57,-0.03,0.54,0.3,-2.03,8.65,3.4
45.585,-0.03,0.53,0.3,-2.3,8.48,3.38
45.6,-0.03,0.53,0.3,-2.75,8.21,3.17
45.615,-0.03,0.53,0.3,-2.65,8.29,2.96
45.63,-0.02,0.55,0.3,-2.83,8.68,3.29
45.645,-0.03,0.54,0.31,-3.02,9.1,3.47
45.66,-0.02,0.52,0.36,-1.97,9.39,3.84
45.675,-0.03,0.53,0.33,-2.09,9.66,3.75
45.69,-0.02,0.54,0.3,-2.76,9.75,3.76
45.705,-0.01,0.55,0.3,-2.91,9.75,3.67
45.72,0,0.55,0.31,-2.13,9.69,3.68
45.735,0.02,0.56,0.28,-2.01,9.24,3.63
45.75,0.03,0.55,0.27,-2.14,9.13,3.59
45.765,0.03,0.55,0.26,-1.61,8.91,3.45
45.78,0.03,0.52,0.28,-1.93,9.18,3.5
45.795,0.02,0.5,0.3,-2.09,9.23,3.55
45.81,0.01,0.49,0.32,-2.37,9.42,3.34
45.825,0,0.53,0.29,-2.37,9.6,3.57
45.84,0,0.55,0.28,-2.27,9.56,3.76
45.855,0,0.54,0.28,-2.4,9.33,3.72
45.87,0,0.54,0.29,-1.81,8.84,3.74
45.885,0,0.52,0.3,-1.93,8.9,3.42
45.9,0,0.52,0.28,-1.98,9.48,3.8
45.915,0,0.52,0.28,-2.07,9.42,3.64
45.93,-0.01,0.5,0.3,-1.95,9.31,3.68
45.945,-0.01,0.47,0.34,-2.11,9.42,3.5
45.96,0,0.48,0.33,-1.43,9.2,3.81
45.975,0.01,0.5,0.3,-1.43,9.09,3.68
45.99,0.03,0.52,0.27,-1.12,9,3.64
46.005,0.04,0.52,0.26,-2.46,9.32,3.78
46.02,0.03,0.48,0.28,-1.56,9.34,3.58
46.035,0.04,0.48,0.28,-1.73,9.15,3.82
46.05,0.03,0.46,0.26,-1.99,8.96,3.74
46.065,0.02,0.46,0.27,-2.17,8.87,3.47
46.08,0.01,0.45,0.27,-2.05,9,3.58
46.095,0.01,0.45,0.26,-1.9,9.06,3.67
46.11,0,0.47,0.23,-1.88,9.18,3.82
46.125,0,0.46,0.23,-1.11,9.23,3.88
46.14,0,0.46,0.24,-1.58,9.36,4.02
46.155,0,0.42,0.29,-1.11,9.4,3.99
46.17,0,0.42,0.28,-1.35,9.46,3.98
46.185,0,0.43,0.27,-1.24,9.47,3.87
46.2,0,0.44,0.24,-1,9.55,3.98
46.215,0,0.44,0.23,-1.26,9.42,3.91
46.23,0,0.44,0.22,-1.34,9.48,3.91
46.245,0,0.43,0.22,-1.5,9.42,4.01
46.26,0,0.43,0.21,-1.63,9.38,4.03
46.275,0.01,0.4,0.21,-1.47,8.89,3.87
46.29,0.01,0.4,0.21,-1.53,8.68,3.79
46.305,0.02,0.39,0.21,-1.42,8.69,3.63
46.32,0.02,0.39,0.2,-1.29,8.6,3.64
46.335,0.02,0.39,0.2,-1.25,8.61,3.57
46.35,0.01,0.38,0.24,-1.33,8.65,3.69
46.365,0,0.38,0.25,-1.16,8.83,3.69
46.38,0,0.39,0.26,-1.24,9.01,3.68
46.395,-0.02,0.41,0.26,-1.48,9.34,3.85
46.41,-0.02,0.42,0.26,-1.3,9.55,3.83
46.425,-0.02,0.43,0.25,-1.62,9.72,4.1
46.44,-0.02,0.44,0.23,-1.37,9.62,4.15
46.455,-0.02,0.44,0.21,-1.31,9.5,4.17
46.47,-0.02,0.43,0.21,-1.18,9.38,4.07
46.485,0,0.39,0.21,-1,9.38,4.19
46.5,0,0.37,0.22,-1.24,9.58,3.94
46.515,0.01,0.36,0.22,-0.84,9.34,4.11
46.53,0.02,0.36,0.2,-0.54,8.95,3.73
46.545,0.02,0.36,0.19,-0.28,8.75,3.71
46.56,0.01,0.36,0.18,-0.51,8.56,3.58
46.575,0,0.35,0.19,-0.37,8.46,3.74
46.59,0,0.35,0.2,-0.41,8.5,3.65
46.605,-0.03,0.33,0.23,-0.71,8.68,3.71
46.62,-0.03,0.34,0.24,-1.08,8.74,3.69
46.635,-0.03,0.35,0.24,-1.62,9.07,3.72
46.65,-0.03,0.36,0.23,-1.62,9.27,3.84
46.665,-0.01,0.37,0.23,-1.43,9.43,4.19
46.68,0.01,0.37,0.22,-1.3,9.43,4.16
46.695,0.02,0.37,0.21,-0.55,9.42,4.35
46.71,0.03,0.35,0.18,-0.26,9.53,4.47
46.725,0.03,0.32,0.15,0.14,9.23,4.54
46.74,0.02,0.31,0.13,0.18,9.08,4.16
46.755,0.01,0.29,0.13,0.19,8.99,4.34
46.77,-0.01,0.26,0.12,-0.15,8.73,4.02
46.785,-0.03,0.24,0.12,0.06,8.69,4.08
46.8,-0.03,0.23,0.13,-0.22,8.9,4.11
46.815,-0.02,0.22,0.13,-0.06,8.77,4.12
46.83,-0.02,0.22,0.12,0.04,8.75,4.31
46.845,-0.01,0.23,0.12,-0.13,8.6,4.29
46.86,0,0.22,0.12,0,8.84,4.4
46.875,0.02,0.23,0.12,0.11,8.83,4.37
46.89,0.03,0.21,0.1,0.25,8.63,4.33
46.905,0.03,0.2,0.1,0.01,8.68,4.09
46.92,0.01,0.16,0.1,0.28,8.69,4.22
46.935,0,0.15,0.07,0.32,8.73,4.28
46.95,0,0.13,0.07,0.25,8.84,4.34
46.965,0,0.13,0.05,0.26,8.97,4.44
46.98,0,0.11,0.05,0.4,9.13,4.51
46.995,0,0.1,0.04,0.38,9.07,4.44
47.01,0,0.09,0.03,0.35,8.95,4.38
47.025,0,0.07,0.02,0.23,9.18,4.24
47.04,0,0.06,0.02,0.28,9.18,4.27
47.055,0,0.04,0.04,0.55,9.32,4.26
47.07,0.01,0.03,0.04,0.7,9.19,4.31
47.085,0.01,0.03,0.02,0.59,9.17,4.23
47.1,0.01,0.03,0,0.4,8.88,4.09
47.115,0.01,0.02,0,0.33,8.86,3.92
47.13,0,0.01,0,0.48,8.88,4.1
47.145,0,-0.01,0,0.54,8.79,3.85
47.16,0,-0.02,-0.01,0.48,8.73,3.85
47.175,0,-0.03,-0.01,0.36,8.8,3.88
47.19,0.01,-0.04,-0.01,0.4,8.83,4.12
47.205,0.01,-0.05,-0.01,0.41,8.84,3.96
47.22,0.01,-0.06,-0.01,0.5,9.04,3.93
47.235,0.01,-0.06,-0.01,0.16,9.1,3.91
47.25,0,-0.06,0,0.3,9.19,3.95
47.265,0,-0.06,-0.01,0.23,9.18,3.9
47.28,0,-0.06,-0.01,0.21,9.05,4.06
47.295,0,-0.06,-0.01,0.12,8.91,3.96
47.31,0,-0.06,-0.02,-0.1,8.79,3.97
47.325,0,-0.06,-0.01,0.08,8.77,3.95
47.34,0,-0.06,-0.02,-0.09,8.76,3.97
47.355,0.02,-0.06,-0.03,-0.15,9.08,3.91
47.37,0.02,-0.06,-0.03,-0.29,9.08,4.03
47.385,0.03,-0.06,-0.02,-0.16,9.26,4.1
47.4,0.03,-0.06,-0.03,-0.07,9.27,4.08
47.415,0.02,-0.06,-0.03,-0.07,9.33,3.97
47.43,0.01,-0.06,-0.03,0.03,9.52,3.83
47.445,0.01,-0.06,-0.02,-0.05,9.62,3.91
47.46,0,-0.06,-0.02,0.05,9.66,3.86
47.475,0,-0.06,-0.01,0.09,9.51,3.72
47.49,0,-0.06,-0.01,-0.18,9.45,3.73
47.505,0,-0.05,-0.01,0.12,9.33,3.69
47.52,0,-0.04,-0.01,-0.06,9.13,3.55
47.535,0,-0.04,0,-0.25,9.06,3.56
47.55,0.01,-0.04,0,-0.11,9.06,3.46
47.565,0.01,-0.04,0,-0.18,8.98,3.42
47.58,0.01,-0.03,0,-0.32,9.02,3.49
47.595,0.01,-0.03,0,-0.36,9.08,3.57
47.61,0.01,-0.03,0,-0.45,8.98,3.54
47.625,0.02,-0.03,-0.01,-0.39,9.06,3.64
47.64,0.02,-0.02,-0.01,-0.4,9.26,3.72
47.655,0.02,-0.01,0,-0.41,9.29,3.85
47.67,0.02,-0.01,0,-0.39,9.32,3.82
47.685,0.01,0,0,-0.09,9.28,3.83
47.7,0.01,0,0,-0.03,9.3,3.82
47.715,0,0,0.01,-0.13,9.21,3.71
47.73,0,0,0.01,-0.04,9.23,3.65
47.745,0,0,0.01,-0.05,9.17,3.72
47.76,0,0,0,-0.07,9.18,3.79
47.775,0,0,0,-0.18,9.21,3.61
47.79,0.01,0,0,-0.23,9.23,3.66
47.805,0.01,0,0,-0.22,9.29,3.7
47.82,0.01,0,0,-0.21,9.36,3.62
47.835,0,0,0,-0.14,9.29,3.76
47.85,0.01,0,0,-0.07,9.28,3.79
47.865,0,0,0,-0.1,9.24,3.83
47.88,0.01,0.01,0,0.03,9.27,3.78
47.895,0,0.01,0,-0.11,9.11,3.86
47.91,0,0,0,-0.14,9.12,3.79
47.925,0,0,0,-0.07,9.12,3.73
47.94,0,0,0,-0.11,9.16,3.76
47.955,0,0,0,-0.16,9.12,3.85
47.97,0,0,0,-0.16,9.21,3.81
47.985,0,0,0,-0.12,9.21,3.73
48,0,0,0,-0.11,9.23,3.77
48.015,0,0,0,-0.04,9.23,3.76
48.03,0,0,0,-0.04,9.25,3.69
48.045,0,0,0,-0.07,9.24,3.69
48.06,0,0,0,0.03,9.24,3.76
48.075,0,0,0,0.11,9.23,3.67
48.09,0,0,0,-0.04,9.22,3.66
48.105,0,0,0,-0.05,9.21,3.69
48.12,0,0,0,0,9.28,3.6
48.135,0,0,0,-0.09,9.33,3.66
48.15,0,0,0,-0.09,9.3,3.7
48.165,0,0,0,-0.19,9.31,3.69
48.18,0,0,0,-0.16,9.23,3.71
48.195,0,0,0,-0.11,9.2,3.76
48.21,0,0,0,-0.05,9.23,3.7
48.225,0,0,0,-0.04,9.21,3.66
48.24,0,0,0,0.01,9.23,3.7
48.255,0,0,0,0,9.25,3.66
48.27,0,0,0,-0.03,9.22,3.76
48.285,0,0,0,-0.03,9.21,3.68
48.3,0,0,0,-0.06,9.18,3.77
48.315,0,0,0,-0.08,9.19,3.83
48.33,0,0,0,-0.1,9.21,3.79
48.345,0,0,0,-0.09,9.21,3.79
48.36,0,0,0,-0.09,9.18,3.88
48.375,0,0,0,-0.04,9.15,3.88
48.39,0,0,0,-0.07,9.13,3.86
48.405,0,0,0,-0.09,9.07,3.97
48.42,0,0,0,-0.08,9.07,4.03
48.435,0,0,0,-0.05,9.05,3.96
48.45,0,0,0,-0.06,9.04,4.07
48.465,0.01,0,0,-0.06,8.79,4.39
48.48,0.01,0,0,-0.09,8.6,4.7
48.495,0.01,0,0,-0.04,8.51,4.85
48.51,0.01,0,0,-0.05,8.49,4.93
48.525,0.01,0,0,-0.09,8.52,4.89
48.54,0.01,0,0,-0.11,8.55,4.93
48.555,0,0,0,-0.11,8.49,5.13
48.57,0,0,0,-0.03,8.38,5.36
48.585,0,0,0,-0.19,8.2,5.5
48.6,0,0,0,-0.11,8.21,5.48
48.615,0,0,0,-0.14,8.13,5.62
48.63,0.01,0,0,-0.06,8.28,5.46
48.645,0,0,0,0.03,8.41,5.24
48.66,0,0,0,-0.01,8.46,5.18
48.675,0,0,0,-0.06,8.52,5.05
48.69,0,0,0,-0.1,8.5,5
48.705,0,0,0,-0.12,8.42,4.98
48.72,0,0,0,-0.11,8.42,4.94
48.735,0,0,0,-0.1,8.47,4.89
48.75,0,0,0,-0.06,8.48,4.94
48.765,0,0,0,-0.03,8.5,4.99
48.78,0,0,0,-0.05,8.46,5.04
48.795,0,0,0,-0.05,8.41,5.12
48.81,0,0,0,-0.03,8.41,4.98
48.825,0,0,0,-0.07,8.34,5.21
48.84,0,0,0,-0.09,8.38,5.25
48.855,0,0,0.01,-0.08,8.5,5.24
48.87,0,0,0.01,-0.09,8.55,5.2
48.885,0,0,0,-0.15,8.51,5.17
48.9,0,0,0,-0.15,8.48,5.06
48.915,-0.01,0,0,-0.13,8.39,4.99
48.93,0,0,0,-0.1,8.42,4.96
48.945,-0.01,0,0,-0.13,8.44,4.98
48.96,0,0,0,-0.12,8.42,4.91
48.975,0,0,0,-0.13,8.4,5.02
48.99,0,0,0,-0.07,8.4,5.1
49.005,0,0,0,-0.04,8.39,5.26
49.02,0,0,0,-0.03,8.43,5.17
49.035,0,0,0,0.04,8.51,5.01
49.05,0,0,0,0.08,8.5,4.96
49.065,0,0,0,0.04,8.52,5
49.08,0,0,0.01,0,8.48,5
49.095,0,0,0.01,-0.03,8.46,5
49.11,0.01,0,0,-0.11,8.5,4.93
49.125,0.01,0,0,-0.18,8.47,4.91
49.14,0.01,0,0.01,-0.24,8.42,4.96
49.155,0.01,0,0.01,-0.24,8.42,5.09
49.17,0.01,0,0,-0.17,8.42,5.11
49.185,0.01,0,0,-0.15,8.41,5.2
49.2,0,0,0,-0.05,8.46,5.07
49.215,0.01,0,0,-0.01,8.42,5.03
49.23,0.01,0,0.01,0.01,8.42,5.13
49.245,0,0,0,-0.03,8.41,5.1
49.26,0,0,0,0,8.49,5.01
49.275,0,0,0,-0.04,8.48,5.1
49.29,0.01,0,0,-0.08,8.45,5
49.305,0,0,0,-0.08,8.43,5.02
49.32,0,0,0,-0.12,8.49,5.15
49.335,0.01,0,0,-0.12,8.46,5.07
49.35,0,0,0,-0.11,8.46,5
49.365,0,0,0,-0.08,8.43,5.1
49.38,0,0,0,-0.05,8.43,5.07
49.395,0.01,0,0,-0.05,8.39,5.06
49.41,0,0,0,-0.04,8.43,5.07
49.425,0,0,0,-0.06,8.45,5.09
49.44,0,0,0,-0.08,8.43,5.16
49.455,0,0,0,-0.1,8.46,5.09
49.47,0,0,0.01,-0.09,8.47,5.06
49.485,0,0,0,-0.13,8.46,5.07
49.5,0,0,0,-0.1,8.37,5.09
49.515,0,0,0,-0.08,8.4,5.02
49.53,0,0,0,-0.06,8.41,5.06
49.545,0,0,0,-0.06,8.45,5.12
49.56,0,0,0,-0.06,8.48,5.12
49.575,0,0,0,-0.07,8.46,5.14
49.59,0,0,0.01,-0.07,8.39,5.14
49.605,0,0,0,-0.08,8.43,5.1
49.62,0,0,0,-0.1,8.48,5.13
49.635,0,0,0,-0.09,8.5,5.12
49.65,0,0,0,-0.11,8.45,5.08
49.665,0,0,0,-0.1,8.44,4.92
49.68,0,0,0,-0.07,8.42,4.99
49.695,0,0,0,-0.09,8.42,5.01
49.71,0,0,0,-0.08,8.45,5.08
49.725,0,0,0,-0.05,8.42,5.07
49.74,0,0,0,-0.05,8.38,5
49.755,0,0,0,-0.03,8.39,5.13
49.77,0,0,0,-0.05,8.47,5.11
49.785,0,0,0.01,-0.09,8.52,5.03
49.8,0,0,0,-0.11,8.48,5.11
49.815,0,0,0,-0.08,8.49,5.01
49.83,0,0,0,-0.1,8.4,5.02
49.845,0,0,0,-0.09,8.39,5.12
49.86,0,0,0,-0.12,8.4,5.05
49.875,0,0,0,-0.08,8.44,5.03
49.89,0,0,0,-0.09,8.42,5.12
49.905,0,0,0,-0.03,8.44,5.13
49.92,0,0,0,-0.03,8.47,5.07
49.935,0,0,0,-0.03,8.53,5.07
49.95,0,0,0,-0.04,8.5,5.01
49.965,0,0,0,-0.09,8.39,5.08
49.98,0,0,0,-0.07,8.32,5.1
49.995,0,0,0,-0.09,8.42,5.12
50.01,0,0,0.01,-0.1,8.49,5.07
50.025,0,0,0,-0.13,8.56,5.1
50.04,0,0,0,-0.13,8.5,5.07
50.055,0,0,0,-0.14,8.42,5.14
50.07,0,0,0,-0.1,8.3,5.07
50.085,0,0,0,-0.07,8.34,5.08
50.1,0,0,0,-0.05,8.4,5.08
50.115,0,0,0,-0.02,8.51,5.12
50.13,0,0,0,0,8.56,5.05
50.145,0,0,0,0.05,8.51,5.16
50.16,0,0,0,0,8.44,5.12
50.175,0,0,0,-0.07,8.39,5.07
50.19,0,0,0,-0.16,8.41,5.09
50.205,0,0,0,-0.19,8.46,5.12
50.22,0,0,0,-0.16,8.49,5.04
50.235,0,0,0,-0.15,8.5,5.02
50.25,0,0,0,-0.11,8.48,5.01
50.265,0,0,0,-0.07,8.45,5.09
50.28,0,0,0,-0.02,8.42,5
50.295,0,0,0,-0.04,8.38,5.1
50.31,0,0,0,-0.04,8.36,5.06
50.325,0,0,0,-0.1,8.37,5.11
50.34,0,0,0,-0.08,8.44,5.06
50.355,0,0,0.01,-0.1,8.43,5.19
50.37,0,0,0,-0.1,8.47,5.13
50.385,0,0,0,-0.05,8.5,5.03
50.4,0,0,0,-0.04,8.5,5
50.415,0,0,0,-0.05,8.46,5.08
50.43,0,0,0,-0.07,8.46,5.01
50.445,0,0,0,-0.06,8.38,5.09
50.46,0,0,0,-0.09,8.38,5.16
50.475,0,0,0,-0.08,8.36,5.07
50.49,0,0,0,-0.1,8.47,5.06
50.505,0,0,0,-0.09,8.43,5.1
50.52,0,0,0,-0.09,8.45,5.02
50.535,0,0,0,-0.12,8.5,5.07
50.55,0,0,0,-0.08,8.5,5.05
50.565,0,0,0,-0.08,8.48,5.03
50.58,0,0,0,-0.09,8.45,5.06
50.595,0,0,0,-0.03,8.45,4.97
50.61,0,0,0,-0.01,8.38,5.08
50.625,0,0,0,-0.01,8.4,5.06
50.64,0,0,0,-0.05,8.47,5.12
50.655,0,0,0,-0.08,8.46,5.1
50.67,0,0,0,-0.09,8.45,5.17
50.685,0,0,0,-0.1,8.46,5.1
50.7,0,0,0,-0.11,8.45,5.06
50.715,0,0,0,-0.09,8.43,5.07
50.73,0,0,0,-0.09,8.46,5.01
50.745,0,0,0,-0.1,8.46,4.96
50.76,0,0,0,-0.1,8.42,5.07
50.775,0,0,0,-0.11,8.5,5.07
50.79,0,0,0,-0.1,8.47,5.09
50.805,0,0,0,-0.1,8.47,5.1
50.82,0,0,0,-0.09,8.41,5.13
50.835,0,0,0,-0.09,8.4,5.04
50.85,0,0,0,-0.07,8.38,5.1
50.865,0,0,0,-0.06,8.44,5.05
50.88,0,0,0,-0.04,8.42,5.05
50.895,0,0,0,-0.06,8.47,5.1
50.91,0,0,0,-0.06,8.47,5.12
50.925,0,0,0,-0.06,8.46,5.03
50.94,0,0,0,-0.08,8.43,5.11
50.955,0,0,0,-0.08,8.44,5.09
50.97,0,0,0,-0.12,8.41,5.12
50.985,0,0,0,-0.13,8.42,5.09
51,0,0,0,-0.08,8.45,5.01
51.015,0,0,0,-0.09,8.43,5.06
51.03,0,0,0,-0.09,8.42,5.08
51.045,0,0,0.01,-0.11,8.44,5.05
51.06,0,0,0,-0.07,8.42,5.12
51.075,0,0,0,-0.07,8.43,5.12
51.09,0,0,0,-0.04,8.42,5.08
51.105,0,0,0,-0.06,8.4,5.07
51.12,0,0,0,-0.07,8.42,5.06
51.135,0,0,0,-0.1,8.47,4.97
51.15,0,0,0,-0.05,8.49,5.04
51.165,0,0,0,-0.09,8.49,5.05
51.18,0,0,0,-0.07,8.49,5.06
51.195,0,0,0,-0.07,8.45,5.13
51.21,0,0,0,-0.1,8.46,5.07
51.225,0,0,0,-0.06,8.4,5.18
51.24,0,0,0,-0.08,8.39,5.13
51.255,0,0,0,-0.06,8.41,5.15
51.27,0,0,0,-0.09,8.46,5.01
51.285,0,0,0,-0.1,8.44,5.08
51.3,0,0,0,-0.11,8.46,5.03
51.315,0,0,0,-0.13,8.42,5.02
51.33,0,0,0,-0.11,8.44,5.06
51.345,0,0,0,-0.12,8.47,5.05
51.36,0,0,0,-0.06,8.44,5.06
51.375,0,0,0,-0.07,8.47,5.09
51.39,0,0,0,0,8.44,5.06
51.405,0,0,0,-0.02,8.45,5.06
51.42,0,0,0,-0.01,8.48,5.05
51.435,0,0,0,-0.09,8.44,5.07
51.45,0,0,0,-0.07,8.45,4.97
51.465,0,0,0,-0.09,8.42,5.04
51.48,0,0,0,-0.11,8.41,5.05
51.495,0,0,0,-0.14,8.41,5.09
51.51,0,0,0,-0.12,8.45,5.07
51.525,0,0,0,-0.09,8.43,5.15
51.54,0,0,0,-0.07,8.42,5.11
51.555,0,0,0,-0.06,8.45,5.08
51.57,0,0,0,-0.06,8.48,5.09
51.585,0,0,0,-0.06,8.46,5.08
51.6,0,0,0,-0.06,8.41,5.04
51.615,0,0,0,-0.05,8.43,4.98
51.63,0,0,0,-0.08,8.42,5.02
51.645,0,0,0,-0.08,8.43,5.08
51.66,0,0,0,-0.07,8.47,5.05
51.675,0,0,0,-0.08,8.44,5.13
51.69,0,0,0,-0.09,8.44,5.15
51.705,0,0,0.01,-0.07,8.41,5.09
51.72,0,0,0,-0.08,8.42,5.11
51.735,0,0,0,-0.08,8.43,5.06
51.75,0,0,0,-0.1,8.45,5.01
51.765,0,0,0,-0.08,8.44,5.03
51.78,0,0,0,-0.08,8.44,5.08
51.795,0,0,0,-0.08,8.42,5.07
51.81,0,0,0,-0.07,8.46,5.07
51.825,0,0,0,-0.06,8.45,5.05
51.84,0,0,0,-0.07,8.43,5.13
51.855,0,0,0,-0.07,8.43,5.04
51.87,0,0,0,-0.08,8.43,5.08
51.885,0,0,0.01,-0.05,8.46,5.08
51.9,0,0,0,-0.1,8.45,5.11
51.915,0,0,0,-0.09,8.47,5.02
51.93,0,0,0,-0.08,8.42,5.05
51.945,0,0,0.01,-0.06,8.44,5.07
51.96,0,0,0,-0.08,8.48,5.06
51.975,0,0,0,-0.08,8.47,5.05
51.99,0,0,0,-0.09,8.44,5.1
52.005,0,0,0,-0.08,8.45,5.02
52.02,0,0,0,-0.07,8.45,5.07
52.035,0,0,0,-0.09,8.46,5.07
52.05,0,0,0,-0.09,8.43,5.08
52.065,0,0,0,-0.08,8.44,5.04
52.08,0,0,0,-0.08,8.42,5.09
52.095,0,0,0,0,8.44,5.07
52.11,0,0,0,-0.1,8.42,5.05
52.125,0,0,0.01,-0.02,8.44,5.03
52.14,0,0,0.01,-0.08,8.44,5.01
52.155,0,0,0,-0.09,8.44,5.07
52.17,0,0,0,-0.11,8.46,5.06
52.185,0,0,0,-0.09,8.51,5.07
52.2,0,0,0,-0.12,8.43,5.11
52.215,0,0,0,-0.15,8.45,5.06
52.23,0,0,0,-0.12,8.42,5.07
52.245,0,0,0,-0.1,8.42,5.11
52.26,0,0,0,-0.05,8.43,5.06
52.275,0,0,0,-0.03,8.44,5.04
52.29,0,0,0,-0.03,8.44,5.11
52.305,0,0,0,-0.04,8.46,5.08
52.32,0,0,0,-0.04,8.45,5.04
52.335,0,0,0,-0.04,8.48,5.1
52.35,0,0,0,-0.07,8.45,5.06
52.365,0,0,0,-0.09,8.4,5.08
52.38,0,0,0,-0.1,8.41,5.13
52.395,0,0,0,-0.06,8.42,5.08
52.41,0,0,0,-0.11,8.42,5.04
52.425,0,0,0,-0.08,8.45,5.04
52.44,0,0,0,-0.05,8.46,5.01
52.455,0,0,0,-0.07,8.43,5.1
52.47,0,0,0,-0.08,8.43,5.1
52.485,0,0,0.01,-0.08,8.46,5.08
52.5,0,0,0,-0.12,8.48,5.05
52.515,0,0,0,-0.15,8.44,5.06
52.53,0,0,0,-0.16,8.45,5.02
52.545,0,0,0,-0.12,8.38,5.11
52.56,0,0,0,-0.07,8.4,5.13
52.575,0,0,0,-0.06,8.44,5.09
52.59,0,0,0,-0.04,8.46,5.08
52.605,0,0,0,-0.02,8.47,5.1
52.62,0,0,0,0,8.44,5.04
52.635,0,0,0,-0.01,8.4,5.03
52.65,0,0,0,-0.03,8.43,5.05
52.665,0,0,0,-0.06,8.43,5.05
52.68,0,0,0,-0.13,8.45,5.08
52.695,0,0,0,-0.14,8.45,5.09
52.71,0,0,0,-0.14,8.44,5.04
52.725,0,0,0,-0.13,8.42,5.07
52.74,0,0,0,-0.11,8.45,5.04
52.755,0,0,0,-0.08,8.47,5.02
52.77,0,0,0,-0.09,8.44,5.08
52.785,0,0,0,-0.07,8.42,5.04
52.8,0,0,0,-0.04,8.44,5.09
52.815,0,0,0,-0.07,8.42,5.13
52.83,0,0,0,-0.05,8.45,5.08
52.845,0,0,0,-0.07,8.48,5.04
52.86,0,0,0,-0.09,8.45,5.1
52.875,0,0,0,-0.07,8.45,5.02
52.89,0,0,0,-0.12,8.41,5.05
52.905,0,0,0,-0.12,8.35,5.08
52.92,0,0,0,-0.09,8.5,5.1
52.935,0,0,0,-0.08,8.42,5
52.95,0,0,0,-0.07,8.45,5.1
52.965,0,0,0,-0.07,8.47,5.07
52.98,0,0,0,-0.07,8.44,5.1
52.995,0,0,0,-0.04,8.47,5.04
53.01,0,0,0,-0.05,8.41,5.09
53.025,0,0,0,-0.04,8.41,5.04
53.04,0,0,0,-0.07,8.44,5.07
53.055,0,0,0,-0.06,8.46,5.06
53.07,0,0,0,-0.1,8.41,5.12
53.085,0,0,0,-0.09,8.44,5.08
53.1,0,0,0,-0.09,8.46,5.06
53.115,0,0,0,-0.1,8.46,5.08
53.13,0,0,0.01,-0.1,8.46,5.08
53.145,0,0,0,-0.11,8.46,5.04
53.16,0,0,0,-0.11,8.44,5.1
53.175,0,0,0,-0.08,8.4,5.09
53.19,0,0,0,-0.07,8.4,5.07
53.205,0,0,0,-0.03,8.46,5.1
53.22,0,0,0,-0.07,8.45,5.09
53.235,0,0,0,-0.06,8.5,4.98
53.25,0,0,0,-0.09,8.42,5
53.265,0,0,0,-0.1,8.45,5.03
53.28,0,0,0,-0.08,8.4,5.02
53.295,0,0,0,-0.08,8.4,5.12
53.31,0,0,0,-0.07,8.43,5.12
53.325,0,0,0,-0.07,8.45,5.03
53.34,0,0,0,-0.04,8.44,5.07
53.355,0,0,0,-0.04,8.46,5.1
53.37,0,0,0,-0.09,8.41,5.11
53.385,0,0,0,-0.09,8.43,5.13
53.4,0,0,0,-0.1,8.45,5.02
53.415,0,0,0,-0.09,8.42,5.09
53.43,0,0,0,-0.07,8.33,5.09
53.445,0,0,0,-0.02,8.17,5.04
53.46,0,0,0,-0.11,8.63,5.15
53.475,0,0,0,-0.11,8.52,5.18
53.49,0,0,0,-0.14,8.51,5.02
53.505,0,0,0,-0.07,8.49,4.95
53.52,0,0,0,-0.12,8.45,5.01
53.535,0,0,0,0,8.48,5.04
53.55,0,0,0,-0.02,8.45,5.07
53.565,0,0,0,0,8.45,5.12
53.58,0,0,0,-0.01,8.38,5.14
53.595,0,0,0,-0.05,8.34,5.17
53.61,0,0,0.01,-0.01,8.36,5.1
53.625,0,0,0.01,-0.01,8.43,5.05
53.64,0,0,0,-0.07,8.46,5
53.655,0,0,0,-0.12,8.51,5.04
53.67,0,0,0,-0.19,8.5,5.01
53.685,0,0,0,-0.21,8.46,5.08
53.7,0,0,0,-0.19,8.48,5.03
53.715,0,0,0,-0.16,8.42,5.05
53.73,0,0,0,-0.08,8.4,5.06
53.745,0,0,0,-0.02,8.44,5.07
53.76,0,0,0,0,8.48,5.06
53.775,0,0,0,-0.02,8.45,5.11
53.79,0,0,0,0.01,8.45,5.11
53.805,0,0,0,-0.03,8.42,5.07
53.82,0,0,0,-0.03,8.43,5.08
53.835,0,0,0,-0.09,8.43,5.12
53.85,0,0,0,-0.08,8.46,5.06
53.865,0,0,0,-0.08,8.45,5.1
53.88,0,0,0,-0.07,8.44,5.06
53.895,0,0,0,-0.1,8.45,5.07
53.91,0,0,0,-0.1,8.42,5.09
53.925,0,0,0,-0.07,8.45,5
53.94,0,0,0,-0.1,8.42,5.06
53.955,0,0,0,-0.1,8.43,5.04
53.97,0,0,0,-0.09,8.47,5.05
53.985,0,0,0,-0.12,8.47,5.1
54,0,0,0,-0.08,8.45,5.13
54.015,0,0,0,-0.08,8.45,5.05
54.03,0,0,0,-0.04,8.42,5.13
54.045,0,0,0,-0.05,8.43,5.05
54.06,0,0,0,-0.07,8.45,5.04
54.075,0,0,0,-0.05,8.47,5.03
54.09,0,0,0,-0.08,8.44,5.09
54.105,0,0,0,-0.07,8.44,5.04
54.12,0,0,0,-0.07,8.44,5.07
54.135,0,0,0,-0.07,8.47,5.05
54.15,0,0,0.01,-0.09,8.45,5.04
54.165,0,0,0,-0.1,8.47,5.07
54.18,0,0,0,-0.09,8.44,5.1
54.195,0,0,0,-0.11,8.43,5.06
54.21,0,0,0,-0.11,8.43,5.08
54.225,0,0,0,-0.07,8.47,5.03
54.24,0,0,0,-0.08,8.44,5.02
54.255,0,0,0,-0.06,8.44,5.04
54.27,0,0,0,-0.07,8.46,5.07
54.285,0,0,0,-0.05,8.46,5.04
54.3,0,0,0,-0.08,8.42,5.08
54.315,0,0,0,-0.08,8.43,5.05
54.33,0,0,0,-0.06,8.43,5.03
54.345,0,0,0,-0.06,8.41,5.1
54.36,0,0,0,-0.08,8.46,5.08
54.375,0,0,0,-0.08,8.44,5.06
54.39,0,0,0,-0.1,8.45,5.06
54.405,0,0,0,-0.09,8.42,5.1
54.42,0,0,0,-0.08,8.4,5.07
54.435,0,0,0,-0.08,8.45,5.07
54.45,0,0,0,-0.08,8.46,5.07
54.465,0,0,0,-0.09,8.47,5.01
54.48,0,0,0,-0.1,8.44,5.09
54.495,0,0,0,-0.05,8.43,5.07
54.51,0,0,0,-0.08,8.44,5.07
54.525,0,0,0,-0.06,8.43,5.05
54.54,0,0,0,-0.08,8.46,5.04
54.555,0,0,0,-0.07,8.45,5.13
54.57,0,0,0,-0.07,8.44,5.04
54.585,0,0,0,-0.07,8.48,5.07
54.6,0,0,0,-0.09,8.43,5.08
54.615,0,0,0,-0.11,8.44,5.13
54.63,0,0,0,-0.1,8.47,5.03
54.645,0,0,0,-0.1,8.44,5.1
54.66,0,0,0,-0.08,8.43,5.09
54.675,0,0,0,-0.07,8.46,5.06
54.69,0,0,0,-0.07,8.42,5.08
54.705,0,0,0,-0.09,8.41,5.12
54.72,0,0,0,-0.09,8.42,5.03
54.735,0,0,0,-0.07,8.44,5.06
54.75,0,0,0,-0.07,8.45,5.08
54.765,0,0,0,-0.09,8.43,5.11
54.78,0,0,0,-0.06,8.45,5.01
54.795,0,0,0,-0.05,8.45,5.09
54.81,0,0,0,-0.06,8.42,5.06
54.825,0,0,0,-0.08,8.44,5.08
54.84,0,0,0,-0.06,8.45,5.05
54.855,0,0,0,-0.08,8.43,5.1
54.87,0,0,0,-0.1,8.43,5.09
54.885,0,0,0,-0.07,8.44,5.1
54.9,0,0,0,-0.1,8.46,5.07
54.915,0,0,0,-0.1,8.44,5.09
54.93,0,0,0,-0.06,8.47,5.03
54.945,0,0,0,-0.06,8.44,5
54.96,0,0,0,-0.05,8.42,5.09
54.975,0,0,0,-0.07,8.42,5.05
54.99,0,0,0,-0.06,8.48,5.05
55.005,0,0,0,-0.08,8.44,5.11
55.02,0,0,0,-0.07,8.47,5.04
55.035,0,0,0,-0.09,8.43,5.05
55.05,0,0,0,-0.07,8.46,5.07
55.065,0,0,0,-0.06,8.44,5.09
55.08,0,0,0,-0.09,8.42,5.09
55.095,0,0,0,-0.09,8.43,5.09
55.11,0,0,0,-0.08,8.42,5.06
55.125,0,0,0,-0.08,8.42,5.06
55.14,0,0,0,-0.06,8.46,5.07
55.155,0,0,0,-0.06,8.43,5.04
55.17,0,0,0,-0.09,8.43,5.1
55.185,0,0,0,-0.08,8.43,5.02
55.2,0,0,0,-0.07,8.44,5.07
55.215,0,0,0,-0.07,8.44,5.08
55.23,0,0,0,-0.07,8.48,5.04
55.245,0,0,0,-0.09,8.47,5.04
55.26,0,0,0,-0.07,8.42,5.11
55.275,0,0,0,-0.07,8.42,5.04
55.29,0,0,0,-0.09,8.45,5.04
55.305,0,0,0,-0.11,8.45,5
55.32,0,0,0,-0.08,8.4,5.09
55.335,0,0,0,-0.08,8.42,5.04
55.35,0,0,0,-0.05,8.4,5.1
55.365,0,0,0,-0.05,8.47,5.11
55.38,0,0,0.01,-0.05,8.46,5.11
55.395,0,0,0,-0.08,8.48,5.08
55.41,0,0,0,-0.07,8.42,5.14
55.425,0,0,0,-0.11,8.43,5.09
55.44,0,0,0,-0.11,8.48,5.09
55.455,0,0,0,-0.13,8.47,5.05
55.47,0,0,0.01,-0.12,8.43,5.06
55.485,0,0,0,-0.11,8.44,5.06
55.5,0,0,0,-0.09,8.43,5.01
55.515,0,0,0,-0.11,8.43,5.02
55.53,0,0,0,-0.06,8.45,5.08
55.545,0,0,0,-0.06,8.47,5
55.56,0,0,0,-0.06,8.44,5.07
55.575,0,0,0,-0.07,8.43,5.11
55.59,0,0,0,-0.03,8.42,5.07
55.605,0,0,0,-0.06,8.47,5.07
55.62,0,0,0,-0.09,8.4,5.12
55.635,0,0,0,-0.07,8.44,5.05
55.65,0.01,0,0,-0.09,8.42,5.05
55.665,0,0,0,-0.08,8.43,5.13
55.68,0,0,0,-0.08,8.43,5.1
55.695,0,0,0,-0.07,8.44,5.12
55.71,0,0,0,-0.07,8.48,5.06
55.725,0,0,0.01,-0.1,8.45,5.02
55.74,0,0,0,-0.07,8.43,5.04
55.755,0,0,0,-0.11,8.46,5.07
55.77,0,0,0,-0.08,8.47,5.04
55.785,0,0,0,-0.11,8.44,5.08
55.8,0,0,0,-0.09,8.46,5.01
55.815,0,0,0,-0.08,8.47,5.12
55.83,0,0,0,-0.06,8.47,5.1
55.845,0,0,0,-0.02,8.48,5.07
55.86,0,0,0,-0.05,8.44,5.03
55.875,0,0,0,-0.08,8.4,5.09
55.89,0,0,0,-0.06,8.41,5.03
55.905,0,0,0,-0.06,8.41,5.04
55.92,0,0,0,-0.08,8.47,5.08
55.935,0,0,0,-0.1,8.46,5.14
55.95,0,0,0,-0.11,8.48,5.06
55.965,0,0,0,-0.1,8.44,5.1
55.98,0,0,0,-0.08,8.44,5.07
55.995,0,0,0,-0.11,8.4,5.07
56.01,0,0,0,-0.08,8.43,5.07
56.025,0,0,0,-0.09,8.43,5.09
56.04,0,0,0,-0.09,8.44,5.04
56.055,0,0,0,-0.07,8.46,5.11
56.07,0,0,0,-0.06,8.48,5.07
56.085,0,0,0,-0.07,8.43,5.12
56.1,0,0,0,-0.08,8.43,5.1
56.115,0,0,0,-0.04,8.46,5.03
56.13,0,0,0,-0.08,8.45,5.1
56.145,0,0,0,-0.09,8.43,5.09
56.16,0,0,0,-0.09,8.47,5.06
56.175,0,0,0,-0.08,8.44,5.09
56.19,0,0,0,-0.13,8.42,5.08
56.205,0,0,0,-0.11,8.44,5.03
56.22,0,0,0,-0.08,8.46,5.09
56.235,0,0,0,-0.07,8.43,5.08
56.25,0,0,0,-0.08,8.47,5.06
56.265,0,0,0,-0.08,8.43,5.06
56.28,0,0,0,-0.08,8.41,5.11
56.295,0,0,0,-0.1,8.43,5.05
56.31,0,0,0,-0.05,8.42,5.08
56.325,0,0,0,-0.06,8.44,5.06
56.34,0,0,0,-0.09,8.44,5.1
56.355,0,0,0,-0.09,8.44,5.03
56.37,0,0,0,-0.04,8.45,5.06
56.385,0,0,0,-0.07,8.41,5.04
56.4,0,0,0,-0.09,8.41,5.13
56.415,0,0,0,-0.07,8.46,5.05
56.43,0,0,0,-0.09,8.43,5.03
56.445,0,0,0,-0.09,8.44,5.07
56.46,0,0,0,-0.09,8.45,5.09
56.475,0,0,0,-0.06,8.46,5.04
56.49,0,0,0,-0.11,8.44,5.07
56.505,0,0,0,-0.1,8.44,5.04
56.52,0,0,0,-0.06,8.42,5.05
56.535,0,0,0,-0.05,8.46,5.1
56.55,0,0,0,-0.07,8.45,5.07
56.565,0,0,0,-0.07,8.46,5.05
56.58,0,0,0,-0.07,8.45,5.11
56.595,0,0,0,-0.09,8.44,5.07
56.61,0,0,0,-0.08,8.42,5.06
56.625,0,0,0,-0.08,8.46,5.07
56.64,0,0,0,-0.09,8.46,5.05
56.655,0,0,0,-0.08,8.44,5.04
56.67,0,0,0,-0.08,8.43,5.13
56.685,0,0,0,-0.08,8.47,5.06
56.7,0,0,0.01,-0.08,8.42,5.09
56.715,0,0,0,-0.08,8.5,5.05
56.73,0,0,0,-0.08,8.45,5.05
56.745,0,0,0,-0.1,8.44,5.09
56.76,0,0,0,-0.06,8.42,5.1
56.775,0,0,0,-0.06,8.45,5.07
56.79,0,0,0,-0.06,8.43,5.09
56.805,0,0,0,-0.09,8.41,5.1
56.82,0,0,0,-0.08,8.43,5.02
56.835,0,0,0,-0.07,8.46,5.07
56.85,0,0,0,-0.08,8.45,5.09
56.865,0,0,0,-0.08,8.46,5.07
56.88,0,0,0,-0.09,8.41,5.1
56.895,0,0,0,-0.07,8.42,5.07
56.91,0,0,0,-0.05,8.42,5.05
56.925,0,0,0.01,-0.1,8.43,5.05
56.94,0,0,0,-0.08,8.47,5.06
56.955,0,0,0,-0.07,8.43,5.09
56.97,0,0,0,-0.07,8.47,5.05
56.985,0,0,0,-0.09,8.45,5.12
57,0,0,0,-0.1,8.43,5.07
57.015,0,0,0,-0.09,8.45,5.09
57.03,0,0,0,-0.08,8.46,5.04
57.045,0,0,0,-0.1,8.42,5.08
57.06,0,0,0,-0.08,8.42,5.08
57.075,0,0,0,-0.07,8.44,5.09
57.09,0,0,0,-0.08,8.46,5.04
57.105,0,0,0,-0.09,8.44,5.09
57.12,0,0,0,-0.08,8.46,5.02
57.135,0,0,0,-0.07,8.42,5.05
57.15,0,0,0,-0.07,8.43,5.09
57.165,0,0,0,-0.09,8.42,5.1
57.18,0,0,0,-0.07,8.45,5.03
57.195,0,0,0,-0.11,8.44,5.09
57.21,0,0,0,-0.08,8.45,5.01
57.225,0,0,0,-0.11,8.44,5.05
57.24,0,0,0,-0.06,8.46,5.05
57.255,0,0,0,-0.1,8.45,5.08
57.27,0,0,0,-0.07,8.43,5.1
57.285,0,0,0,-0.07,8.44,5.11
57.3,0,0,0,-0.08,8.44,5.12
57.315,0,0,0.01,-0.08,8.44,5.07
57.33,0,0,0,-0.08,8.46,5.04
57.345,0,0,0,-0.1,8.46,5.04
57.36,0,0,0,-0.09,8.44,5.08
57.375,0,0,0,-0.08,8.42,5.02
57.39,0,0,0,-0.07,8.47,5.08
57.405,0,0,0,-0.07,8.46,5.1
57.42,0,0,0,-0.1,8.45,5.11
57.435,0,0,0,-0.09,8.44,5.03
57.45,0,0,0,-0.06,8.42,5.09
57.465,0,0,0,-0.07,8.45,5.03
57.48,0,0,0,-0.1,8.43,5.07
57.495,0,0,0,-0.08,8.43,5.09
57.51,0,0,0,-0.1,8.45,5.12
57.525,0,0,0,-0.08,8.41,5.07
57.54,0,0,0,-0.08,8.45,5.07
